ACCELEROMETER_X,ACCELEROMETER_Y,ACCELEROMETER_Z,GRAVITY_X,GRAVITY_Y,GRAVITY_Z,LINEAR_ACCELERATION_X,LINEAR_ACCELERATION_Y,LINEAR_ACCELERATION_Z,GYROSCOPE_X,GYROSCOPE_Y,GYROSCOPE_Z,LIGHT,MAGNETIC_FIELD_X,MAGNETIC_FIELD_Y,MAGNETIC_FIELD_Z,ORIENTATION_Z_azimuth,ORIENTATION_X_pitch,ORIENTATION_Y_roll,PROXIMITY,SOUND_LEVEL,LOCATION_Latitude,LOCATION_Longitude,LOCATION_Altitude,LOCATION_Altitude-google,LOCATION_Speed,LOCATION_Accuracy,LOCATION_ORIENTATION,Satellites_in_range,Time,Date
1.630051,9.305634,2.191406,1.801248,9.416523,2.06276,-0.020219,7.9E-05,-0.053701,-0.268646,0.327103,0.048996,0,-5.8884,-44.2825,6.1523,141.7971,-75.3638,-47.414,5,37.88257,59.998833,30.362463,0,NaN,0,500,0,0 / 0,19,2020-01-19 16:19:35:794
1.630051,9.305634,2.191406,1.801248,9.416523,2.06276,-0.020219,7.9E-05,-0.053701,-0.268646,0.327103,0.048996,0,-5.8884,-44.2825,6.1523,141.7971,-75.3638,-47.414,5,37.88257,59.998833,30.362463,0,NaN,0,500,0,0 / 0,2519,2020-01-19 16:19:35:794
-7.885696,3.200424,-4.879867,-7.075078,5.263229,-4.290931,1.787111,-0.548251,0.687938,0.936173,0.977814,-0.899979,0,37.8616,-28.2837,-4.4479,91.3611,-39.4604,113.3113,0,37.81529,59.998833,30.362463,0,NaN,0,500,0,0 / 0,5020,2020-01-19 16:19:40:795
-7.319473,-2.370895,-6.227798,-7.244437,-2.282567,-6.203095,-0.02632,-0.027892,0.048058,-0.012451,-0.040939,-0.009048,0,41.684,-1.2054,20.8481,134.8574,13.4147,130.8511,0,19.3223,59.998833,30.362463,0,NaN,0,500,0,0 / 0,10019,2020-01-19 16:19:45:794
-7.434387,-2.327789,-6.17514,-7.339723,-2.270319,-6.094629,-4.9E-05,0.028778,0.016672,-0.004639,0.003616,-0.000534,0,41.9846,-3.7552,23.4497,148.3717,13.4357,129.6892,0,18.14932,59.998203,30.36051,0,NaN,0,23.197,0,0 / 0,15019,2020-01-19 16:19:50:794
-6.774795,-4.330536,-5.969238,-6.647307,-4.176355,-5.877223,-0.013905,-0.04972,0.007209,-0.005707,0.027588,0.007278,0,33.9844,21.2448,14.5493,70.8178,25.217,131.3911,0,5.94566,59.998203,30.36051,0,NaN,0,23.197,0,0 / 0,20019,2020-01-19 16:19:55:794
-6.750854,-4.216812,-6.003952,-6.62481,-4.182389,-5.898295,0.027646,-0.000819,-0.002422,0.001099,0.004181,-0.001648,0,34.285,20.5963,14.6988,72.5073,25.228,131.6699,0,18.46362,59.998203,30.36051,0,NaN,0,23.197,0,0 / 0,25019,2020-01-19 16:20:00:794
-6.707748,-4.264709,-5.951278,-6.638449,-4.181717,-5.883419,0.011473,-0.035373,0.005864,-0.00174,-7.6E-05,-0.00148,0,33.136,20.5948,15.4999,68.3824,25.2283,131.58,0,17.26248,59.998203,30.36051,0,NaN,0,23.197,0,0 / 0,30019,2020-01-19 16:20:05:794
-6.700577,-4.270691,-6.044647,-6.62223,-4.168855,-5.910761,-0.000599,0.007534,-0.010761,-0.001556,0.007553,-0.007324,0,31.7841,19.194,14.7003,74.4747,25.1496,131.7211,0,18.75523,59.998203,30.36051,0,NaN,0,23.197,0,0 / 0,35019,2020-01-19 16:20:10:794
-6.805908,-4.245544,-5.875854,-6.709905,-4.176771,-5.805354,-0.003834,0.007638,-0.015829,4.6E-05,-0.003098,0.00119,0,33.6868,21.1456,15.3503,70.5217,25.2177,130.9101,0,25.16524,59.998203,30.36051,0,NaN,0,23.197,0,0 / 0,40019,2020-01-19 16:20:15:794
-6.740082,-4.291046,-5.932129,-6.659709,-4.198577,-5.847274,0.008248,-0.007919,-0.007307,4.6E-05,-0.005051,0.000473,0,33.8364,21.0434,16.0477,71.318,25.3493,131.2834,0,15.19922,59.998203,30.36051,0,NaN,0,23.197,0,0 / 0,45019,2020-01-19 16:20:20:794
-6.771194,-4.252731,-5.968033,-6.650903,-4.180038,-5.870531,-0.000232,-0.006089,0.000319,-0.000488,-0.004166,0.001892,0,33.1848,20.1447,14.0488,72.4537,25.2423,131.4592,0,4.57623,59.998203,30.36051,0,NaN,0,23.197,0,0 / 0,50019,2020-01-19 16:20:25:794
-6.597625,-4.659744,-5.974014,-6.572225,-4.263154,-5.899301,0.047845,-0.317178,0.059489,0.057739,0.010391,0.182465,0,31.2851,22.2458,14.9979,58.6051,26.0673,132.3896,0,11.20805,59.998203,30.36051,0,NaN,0,23.197,0,0 / 0,55019,2020-01-19 16:20:30:794
-6.75444,-4.226394,-5.988388,-6.630968,-4.17389,-5.897396,-0.019438,0.006698,-0.003741,0.00058,0.002045,-0.002899,0,32.5851,21.8445,15.5991,64.0122,25.2051,131.709,0,8.5358,59.998203,30.36051,0,NaN,0,23.197,0,0 / 0,60019,2020-01-19 16:20:35:794
-6.712539,-4.241958,-5.983597,-6.63711,-4.188886,-5.87983,0.016593,-0.010473,0.010687,-0.001495,0.002396,-0.006683,0,32.9849,21.8445,15.1001,64.2942,25.2282,131.5596,0,47.26189,59.998203,30.36051,0,NaN,0,23.197,0,0 / 0,65019,2020-01-19 16:20:40:794
-6.744858,-4.226394,-5.977615,-6.631901,-4.171029,-5.89837,0.007293,-0.003368,0.007439,0.001343,0.00293,-0.000824,0,32.8339,21.1945,15.4984,68.1768,25.15,131.6451,0,47.75792,59.998203,30.36051,0,NaN,0,23.197,0,0 / 0,70019,2020-01-19 16:20:45:794
-6.687408,-4.261108,-6.019516,-6.61182,-4.16553,-5.924741,0.009444,0.004204,-0.019861,0.001877,-0.001877,-0.00029,0,31.485,20.7459,15.2985,62.5005,25.1417,131.8404,0,44.98082,59.998203,30.36051,0,NaN,0,23.197,0,0 / 0,75019,2020-01-19 16:20:50:794
-6.748459,-4.235977,-5.971618,-6.644929,-4.183111,-5.875108,-0.001855,0.002039,0.000409,-0.000961,0.000443,0.002914,0,31.8359,20.6955,14.8987,65.4908,25.2213,131.5252,0,51.51088,59.998203,30.36051,0,NaN,0,23.197,0,0 / 0,80019,2020-01-19 16:20:55:794
-6.726913,-4.258713,-5.950073,-6.638126,-4.171832,-5.890797,-0.013711,0.019827,0.008418,-6.1E-05,0.007004,-0.00473,0,32.2845,21.1441,14.9979,65.4255,25.1804,131.5992,0,40.16802,59.998203,30.36051,0,NaN,0,23.197,0,0 / 0,85019,2020-01-19 16:21:00:794
-6.779587,-4.194076,-6.030288,-6.642776,-4.168158,-5.888154,0.005686,0.013213,0.001141,-0.00238,0.003815,0.002548,0,32.1854,21.9452,16.0477,60.5833,25.1636,131.5532,0,41.2554,59.998203,30.36051,0,NaN,0,23.197,0,0 / 0,90019,2020-01-19 16:21:05:794
-6.929214,-4.304199,-5.993179,-6.686056,-4.115646,-5.876096,-0.130345,-0.107954,-0.01924,-0.007889,-0.042709,0.032379,0,32.486,20.5963,13.649,66.6636,25.0605,131.8202,0,44.82625,59.998203,30.36051,0,NaN,0,23.197,0,0 / 0,95019,2020-01-19 16:21:10:794
-6.752044,-4.206039,-5.97641,-6.633764,-4.160953,-5.90339,-0.00725,0.036376,0.015608,0.001175,-0.012344,0.002731,0,32.0328,20.9457,15.4678,65.4262,25.1377,131.7506,0,42.89748,59.998203,30.36051,0,NaN,0,23.197,0,0 / 0,100019,2020-01-19 16:21:15:794
-6.73529,-4.240753,-6.021896,-6.616333,-4.171223,-5.915692,-0.028074,-0.014265,0.005291,0.000107,-0.021576,0.016937,0,32.135,21.2448,16.6992,65.2156,25.1915,131.9328,0,49.51993,59.998203,30.36051,0,NaN,0,23.197,0,0 / 0,105019,2020-01-19 16:21:20:794
-6.685013,-4.220413,-6.006347,-6.608786,-4.158873,-5.932799,0.01142,-0.025201,0.014611,-0.000595,0.001862,-0.001175,0,31.6345,21.3455,16.2491,65.1487,25.0889,131.9299,0,33.73541,59.998203,30.36051,0,NaN,0,23.197,0,0 / 0,110019,2020-01-19 16:21:25:794
-6.69458,-4.220413,-6.047043,-6.593856,-4.164731,-5.945288,-0.005711,0.006294,-0.010558,-0.001312,0.008606,0.000778,0,32.7347,19.6442,14.9002,72.6938,25.1792,131.8954,0,42.95229,59.998203,30.36051,0,NaN,0,23.197,0,0 / 0,115020,2020-01-19 16:21:30:795
-6.689804,-4.417938,-5.965637,-6.565914,-4.270062,-5.901333,-0.02779,-0.068248,0.021139,0.023544,0.012512,0.012848,0,31.8848,21.4447,16.2994,66.9626,25.5949,131.955,0,54.11414,59.998203,30.36051,0,NaN,0,23.197,0,0 / 0,120019,2020-01-19 16:21:35:794
-6.767608,-4.195266,-5.970428,-6.651834,-4.156732,-5.886006,-0.000847,0.006537,0.005899,-0.000595,0.002396,0.000778,0,31.9351,21.6446,15.799,60.2647,25.0883,131.5002,0,58.88054,59.998203,30.36051,0,NaN,0,23.197,0,0 / 0,125019,2020-01-19 16:21:40:794
-6.049347,-4.761505,-5.908172,-6.375089,-4.524188,-5.921177,-0.416773,0.198703,-0.587475,0.146225,-0.014297,-0.189911,0,29.7348,24.8947,14.4485,48.6165,25.7653,132.5618,0,47.48503,59.998203,30.36051,0,NaN,0,23.197,0,0 / 0,130019,2020-01-19 16:21:45:794
-7.08963,-3.861282,-5.8591,-6.943593,-3.81323,-5.780673,0.003158,0.028757,0.004522,-0.000778,0.00824,0.00148,0,34.7351,19.8441,14.6988,68.7664,22.9334,129.6426,0,45.78894,59.998203,30.36051,0,NaN,0,23.197,0,0 / 0,135019,2020-01-19 16:21:50:794
-7.027374,-3.881637,-5.807617,-6.924132,-3.86786,-5.767706,-0.010867,0.003275,0.013097,0.000458,-0.003113,0.000244,0,34.6848,19.696,14.4485,69.9899,23.2148,129.8474,0,39.95438,59.998203,30.36051,0,NaN,0,23.197,0,0 / 0,140019,2020-01-19 16:21:55:794
-7.018997,-3.909164,-5.857895,-6.925438,-3.879525,-5.758296,-0.005758,-0.010429,0.006161,0.00029,0.008606,0.000595,0,34.6848,19.4946,15.3488,74.3936,23.2793,129.7253,0,37.69302,59.998203,30.36051,0,NaN,0,23.197,0,0 / 0,145019,2020-01-19 16:22:00:794
-6.937591,-4.105484,-5.793258,-6.864126,-3.965264,-5.773286,0.00636,-0.099692,0.03714,-0.002029,-0.010925,0.004852,0,32.785,21.4951,14.1495,63.0006,23.7998,130.1646,0,44.66782,59.998203,30.36051,0,NaN,0,23.197,0,0 / 0,150019,2020-01-19 16:22:05:794
-6.966324,-4.068375,-5.887832,-6.833975,-3.964632,-5.809377,0.008406,0.023945,0.014545,0.000504,0.006134,0.00383,0,33.4351,21.9452,12.8998,60.3773,23.8958,130.3577,0,47.31264,59.998203,30.36051,0,NaN,0,23.197,0,0 / 0,155019,2020-01-19 16:22:10:794
-6.937591,-4.033661,-5.8591,-6.842473,-3.964398,-5.799525,-0.009045,-0.009749,0.004966,0.000412,-0.005768,0.001297,0,33.2306,22.4442,13.8458,59.6116,23.864,130.367,0,36.30783,59.998203,30.36051,0,NaN,0,23.197,0,0 / 0,160019,2020-01-19 16:22:15:794
-6.925628,-3.969025,-5.899795,-6.861009,-3.945528,-5.790487,0.007835,0.006122,0.002963,-0.00705,0.000809,0.002182,0,34.1354,21.4951,13.7985,61.8294,23.7838,130.153,0,42.63124,59.998203,30.36051,0,NaN,0,23.197,0,0 / 0,165020,2020-01-19 16:22:20:795
-6.983093,-4.016907,-5.81839,-6.894137,-3.952053,-5.746524,-0.007149,-0.002769,0.001104,-0.000122,0.003281,0.002365,0,33.6853,22.5952,14.1983,57.9106,23.7688,129.8217,0,41.80788,59.998203,30.36051,0,NaN,0,23.197,0,0 / 0,170019,2020-01-19 16:22:25:794
-7.00943,-3.996551,-5.849518,-6.891818,-3.933076,-5.762304,0.003284,-0.011462,0.006809,0.000595,0.002045,0.001648,0,33.9859,22.3953,15.1489,62.2995,23.6412,129.9397,0,49.22029,59.998203,30.36051,0,NaN,0,23.197,0,0 / 0,175019,2020-01-19 16:22:30:794
-6.974701,-3.954651,-5.83995,-6.890828,-3.914924,-5.775831,-0.003041,0.0108,0.007065,0.001297,0.002228,-0.000488,0,33.6853,20.7443,14.798,64.0646,23.481,130.005,0,41.70346,59.998203,30.36051,0,NaN,0,23.197,0,0 / 0,180019,2020-01-19 16:22:35:794
-7.027374,-3.91156,-5.804031,-6.897749,-3.911636,-5.769794,-0.023661,-0.01675,0.003759,-0.002594,-0.006699,-0.003723,0,34.2346,20.9442,15.2496,64.0403,23.4945,129.9396,0,46.38875,59.998203,30.36051,0,NaN,0,23.197,0,0 / 0,185019,2020-01-19 16:22:40:794
-7.165039,-4.844101,-6.268509,-7.032,-4.530497,-5.118197,-0.196841,-0.155441,-0.245024,0.34256,-0.0802,0.131027,0,32.3837,23.6954,11.9995,55.5931,26.5744,127.5564,0,47.0473,59.998203,30.36051,0,NaN,0,23.197,0,0 / 0,190019,2020-01-19 16:22:45:794
-6.93042,-4.645385,-5.42575,-6.890626,-4.553976,-5.286866,0.017145,0.012153,-0.006782,0.001495,0.006271,-0.003372,0,33.3344,21.7438,12.3993,69.5153,27.6525,127.4834,0,46.14727,59.998203,30.36051,0,NaN,0,23.197,0,0 / 0,195019,2020-01-19 16:22:50:794
-7.024978,-4.574753,-5.424545,-6.89542,-4.514163,-5.314687,0.001436,0.035195,-0.024825,-0.001587,0.010742,-0.004745,0,32.0847,19.8456,13.2492,74.896,27.3236,127.6048,0,45.8646,59.998203,30.36051,0,NaN,0,23.197,0,0 / 0,200019,2020-01-19 16:22:55:794
-7.045334,-4.54721,-5.353927,-6.915195,-4.515893,-5.287454,-0.011593,0.014863,-0.003919,0.0009,-0.001526,-0.004211,0,33.8348,21.4447,12.2482,75.5493,27.3911,127.4171,0,49.37041,59.998203,30.36051,0,NaN,0,23.197,0,0 / 0,205019,2020-01-19 16:23:00:794
-7.033371,-4.574753,-5.338363,-6.938956,-4.494235,-5.274761,0.008615,0.005663,-0.009179,0.008362,-0.008087,-0.000839,0,33.1345,21.4462,13.6978,72.732,27.2707,127.2682,0,51.0371,59.998203,30.36051,0,NaN,0,23.197,0,0 / 0,210020,2020-01-19 16:23:05:795
-7.007034,-4.604675,-5.357513,-6.91087,-4.527527,-5.283156,-0.005028,0.004666,0.003291,0.003586,0.000137,0.00032,0,33.8165,22.5327,14.2426,68.7706,27.4854,127.3951,0,52.38814,59.998203,30.36051,0,NaN,0,23.197,0,0 / 0,215019,2020-01-19 16:23:10:794
-7.052521,-4.56517,-5.380264,-6.917052,-4.497699,-5.300518,0.020735,-0.011299,0.009439,-0.002106,-0.000748,-0.00145,0,32.1854,19.8441,12.7487,74.7308,27.2992,127.4629,0,47.24347,59.998203,30.36051,0,NaN,0,23.197,0,0 / 0,220019,2020-01-19 16:23:15:794
-7.078857,-4.559189,-5.331177,-6.932408,-4.514902,-5.265716,-0.004743,-0.00613,0.002244,-0.001572,-0.000931,-0.001282,0,32.6843,20.4453,12.4481,77.4849,27.4172,127.2462,0,40.4988,59.998203,30.36051,0,NaN,0,23.197,0,0 / 0,225019,2020-01-19 16:23:20:794
-7.028579,-4.553207,-5.353927,-6.938582,-4.510397,-5.261444,-0.006025,-0.009423,0.010026,-0.002457,0.001373,0.000137,0,32.8857,21.1441,13.8992,73.137,27.3828,127.1726,0,34.65558,59.998203,30.36051,0,NaN,0,23.197,0,0 / 0,230019,2020-01-19 16:23:25:794
-6.990265,-4.765091,-5.394623,-6.765121,-4.715219,-5.307564,-0.046809,0.020579,0.004819,-0.002106,0.037415,-0.025604,0,32.4356,22.345,12.648,70.7473,28.7389,128.1159,0,44.92436,59.998203,30.36051,0,NaN,0,23.197,0,0 / 0,235019,2020-01-19 16:23:30:794
-7.01062,-4.648971,-5.30603,-6.891968,-4.565229,-5.275399,0.004164,-0.006388,0.02331,0.007675,0.004395,0.008484,0,31.8848,21.9452,12.7487,66.5286,27.7441,127.432,0,41.50917,59.998203,30.36051,0,NaN,0,23.197,0,0 / 0,240019,2020-01-19 16:23:35:794
-6.645508,-4.240753,-6.085357,-6.549251,-4.147731,-6.006165,0.000166,-0.026804,0.021477,0.001801,0.005814,0.00795,0,31.8863,22.995,14.9979,58.1397,25.0139,132.5663,0,53.9487,59.998203,30.36051,0,NaN,0,23.197,0,0 / 0,245019,2020-01-19 16:23:40:794
-6.671844,-4.171326,-6.099716,-6.583924,-4.119453,-5.987691,-0.016718,0.011927,-0.00069,0.000397,0.006165,0.004761,0,31.3843,22.5449,15.4495,54.3554,24.8388,132.2847,0,46.34679,59.998203,30.36051,0,NaN,0,23.197,0,0 / 0,250019,2020-01-19 16:23:45:794
-6.714935,-4.036056,-6.087738,-6.63324,-4.014549,-6.00449,0.007422,0.031036,0.001081,0.005005,0.00351,0.007965,0,31.4346,21.9452,15.3488,55.9541,24.1653,132.1518,0,52.25769,59.998203,30.36051,0,NaN,0,23.197,0,0 / 0,255020,2020-01-19 16:23:50:795
-6.831054,-4.076752,-6.030288,-6.713024,-3.965286,-5.948294,-0.015593,-0.043298,0.009284,-0.00795,-0.023651,0.026245,0,32.6355,19.0445,14.5996,72.4628,23.8502,131.5436,0,44.1406,59.998203,30.36051,0,NaN,0,23.197,0,0 / 0,260019,2020-01-19 16:23:55:794
-6.865768,-4.024078,-5.93811,-6.792206,-3.920689,-5.887658,-0.001445,-0.012556,0.011892,0.002335,-0.005371,0.011505,0,32.3212,20.6558,15.8951,58.7028,23.5433,130.9682,0,49.70879,59.998203,30.36051,0,NaN,0,23.197,0,0 / 0,265019,2020-01-19 16:24:00:794
-6.905273,-3.887619,-5.980011,-6.782988,-3.915141,-5.901959,-0.022246,0.040958,-0.007399,0.001633,-0.003067,-0.000397,0,32.3349,19.696,15.2985,66.1628,23.5041,130.9579,0,44.13123,59.998203,30.36051,0,NaN,0,23.197,0,0 / 0,270019,2020-01-19 16:24:05:794
-6.18103,-2.895218,-5.499969,-6.942542,-3.725749,-5.838688,0.77504,0.56778,0.209929,0.006607,-0.025787,0.023041,0,33.6853,21.2448,15.1489,60.5618,22.3288,130.0639,0,48.09629,59.998203,30.36051,0,NaN,0,23.197,0,0 / 0,275019,2020-01-19 16:24:10:794
-7.132721,-3.838531,-5.832763,-6.996235,-3.780383,-5.738623,0.001005,-0.034198,0.009614,0.000748,-0.004837,0.005646,0,33.0353,20.1462,14.4485,62.786,22.6743,129.3601,0,48.41858,59.998203,30.36051,0,NaN,0,23.197,0,0 / 0,280019,2020-01-19 16:24:15:794
-7.124344,-3.793045,-5.766922,-7.05223,-3.778643,-5.670829,0.008564,0.020277,-0.019888,0.003052,0.005997,0.01239,0,33.136,20.8405,13.7482,58.0866,22.711,128.712,0,48.28911,59.998203,30.36051,0,NaN,0,23.197,0,0 / 0,285020,2020-01-19 16:24:20:795
-7.539734,-3.503342,-5.514328,-7.401887,-3.495628,-5.40028,0.054716,0.039529,-0.020529,-0.02092,0.001022,-0.020279,0,33.1345,18.8446,11.2991,60.6579,20.8826,126.1138,0,50.23482,59.998203,30.36051,0,NaN,0,23.197,0,0 / 0,290019,2020-01-19 16:24:25:794
-7.428406,-3.651779,-5.544265,-7.306641,-3.58226,-5.472733,0.01521,-0.011294,0.017729,-0.001572,0.003342,-0.002518,0,33.7845,18.544,12.0483,64.5969,21.4254,126.8335,0,44.05532,59.998203,30.36051,0,NaN,0,23.197,0,0 / 0,295019,2020-01-19 16:24:30:794
-7.428406,-3.637421,-5.565811,-7.302161,-3.573994,-5.484104,0.007575,0.003993,0.002127,0.000397,0.00174,0.001022,0,33.2352,18.045,10.9482,63.6743,21.3442,126.9116,0,19.20879,59.998203,30.36051,0,NaN,0,23.197,0,0 / 0,300019,2020-01-19 16:24:35:794
-8.420807,-3.481796,-6.01831,-7.335274,-3.442776,-5.523715,-0.827809,-0.221418,-0.392414,-0.015427,0.030838,0.010757,0,35.6384,19.0414,11.2885,66.7238,20.2993,127.0436,0,5.00415,59.998203,30.36051,0,NaN,0,23.197,0,0 / 0,305019,2020-01-19 16:24:40:794
-7.420028,-3.631439,-5.517929,-7.32595,-3.578579,-5.449275,0.002411,-0.005425,0.005058,-0.000519,-6.1E-05,-0.000259,0,32.6355,20.4453,13.7985,55.1489,21.4215,126.6527,0,5.97333,59.998203,30.36051,0,NaN,0,23.197,0,0 / 0,310019,2020-01-19 16:24:45:794
-7.400879,-3.672134,-5.568207,-7.280374,-3.629063,-5.4769,0.021972,0.010434,-0.007144,0.000198,0.000839,0.000458,0,34.3323,19.7907,12.3489,61.6441,21.7194,126.9535,0,9.79633,59.998203,30.36051,0,NaN,0,23.197,0,0 / 0,315019,2020-01-19 16:24:50:794
-7.366165,-3.65538,-5.588547,-7.265426,-3.627962,-5.497441,0.020327,0.006708,0.001479,0.000732,0.001022,0.000275,0,32.6355,18.5455,13.3499,62.2846,21.7125,127.1133,0,4.18165,59.998203,30.36051,0,NaN,0,23.197,0,0 / 0,320020,2020-01-19 16:24:55:795
-7.430801,-3.705658,-5.497574,-7.327246,-3.620407,-5.419824,0.013537,-0.019326,0.008018,-0.000397,0.004639,-0.002975,0,33.5358,20.4453,13.4995,59.9132,21.6481,126.4706,0,18.55524,59.998203,30.36051,0,NaN,0,23.197,0,0 / 0,325019,2020-01-19 16:25:00:794
-7.393692,-3.724808,-5.510742,-7.312042,-3.637071,-5.429193,0.009525,-0.02567,-0.003384,0.007584,-0.001221,-0.000305,0,34.1843,19.9448,12.7502,60.443,21.7698,126.5939,0,4.36589,59.998203,30.36051,0,NaN,0,23.197,0,0 / 0,330019,2020-01-19 16:25:05:794
-7.44516,-3.686508,-5.511932,-7.318147,-3.62066,-5.431935,-0.001025,0.000179,-0.006296,0.000839,-0.005127,0.006973,0,34.3857,20.8954,13.0981,56.2074,21.6666,126.5849,0,21.19896,59.998203,30.36051,0,NaN,0,23.197,0,0 / 0,335019,2020-01-19 16:25:10:794
-7.400879,-3.629043,-5.544265,-7.317553,-3.612875,-5.437916,-0.00222,-0.018888,-0.042686,-0.001114,0.012802,0.00235,0,34.1354,19.6945,12.8494,60.0069,21.6176,126.6173,0,10.36862,59.998203,30.36051,0,NaN,0,23.197,0,0 / 0,340019,2020-01-19 16:25:15:794
-7.473892,-3.648193,-5.471237,-7.355067,-3.614935,-5.385686,0.012579,0.031758,-0.007092,0.003494,0.001968,0.002884,0,34.7351,20.0943,12.3489,63.1427,21.6369,126.1974,0,14.39475,59.998203,30.36051,0,NaN,0,23.197,0,0 / 0,345019,2020-01-19 16:25:20:794
-7.376938,-3.718826,-5.387436,-7.332491,-3.615025,-5.416322,-0.069521,0.003823,-0.005503,0.00528,-0.012054,-0.002975,0,34.8846,20.2454,13.15,62.5681,21.6312,126.4523,0,42.75487,59.998203,30.36051,0,NaN,0,23.197,0,0 / 0,350019,2020-01-19 16:25:25:794
-7.767181,-3.08316,-5.448486,-7.644581,-2.930528,-5.398404,-0.022002,-0.09864,0.028514,0.000305,-0.00798,0.002182,0,36.3861,14.4959,12.2482,77.1348,17.3874,125.2288,0,33.19299,59.998203,30.36051,0,NaN,0,23.197,0,0 / 0,355019,2020-01-19 16:25:30:794
-7.72409,-2.94191,-5.511932,-7.621779,-2.931946,-5.429784,-0.008699,0.00831,-0.015098,0.000488,0.000366,-0.000305,0,36.084,13.8443,12.8998,77.209,17.3961,125.4662,0,37.32399,59.998203,30.36051,0,NaN,0,23.197,0,0 / 0,360019,2020-01-19 16:25:35:794
-7.738464,-2.999359,-5.472427,-7.639313,-2.937962,-5.401821,-0.012899,-0.011748,0.001001,-4.6E-05,-0.001755,-0.00119,0,37.4695,14.6301,14.8209,73.6528,17.4167,125.2918,0,44.70278,59.998203,30.36051,0,NaN,0,23.197,0,0 / 0,365019,2020-01-19 16:25:40:794
-7.734863,-2.996979,-5.486801,-7.625369,-2.948453,-5.415787,0.003442,0.034347,0.010618,0.001007,0.007294,-0.000671,0,37.5351,14.9445,15.2985,76.3163,17.4972,125.3836,0,20.52234,59.998203,30.36051,0,NaN,0,23.197,0,0 / 0,370019,2020-01-19 16:25:45:794
-7.730072,-2.964645,-5.493988,-7.633287,-2.939576,-5.409454,-0.030684,0.017385,-0.01999,0.001541,-0.007446,0.000748,0,39.3875,14.7491,15.9485,78.1113,17.4428,125.3239,0,6.87692,59.998203,30.36051,0,NaN,0,23.197,0,1 / 1,375019,2020-01-19 16:25:50:794
-7.731277,-4.188095,-4.873886,-7.531531,-4.123075,-4.737791,-0.024561,-0.036203,-0.037011,0.003677,0.008896,0.005371,0,32.4356,17.4454,9.1492,77.9732,24.8888,122.1258,0,4.40282,59.998203,30.36051,0,NaN,0,23.197,0,1 / 1,380019,2020-01-19 16:25:55:794
-7.637893,-4.173721,-4.820007,-7.535355,-4.111585,-4.741696,-0.003459,0.005825,-0.009946,-0.002365,-0.001572,-0.004211,0,33.7357,20.0439,10.1501,68.1022,24.7701,122.1516,0,4.32815,59.998203,30.36051,0,NaN,0,23.197,0,1 / 1,385019,2020-01-19 16:26:00:794
-7.659454,-4.136612,-4.823608,-7.542289,-4.098904,-4.741648,-0.013851,0.007886,0.005583,-0.00502,0.002319,-0.004578,0,32.8354,19.5938,11.2,63.8845,24.7066,122.1566,0,42.7473,59.998203,30.36051,0,NaN,0,23.197,0,1 / 1,390019,2020-01-19 16:26:05:794
-7.655853,-4.200058,-4.815231,-7.555287,-4.082028,-4.735511,0.013911,-0.032123,-0.001215,0.001724,-0.00531,4.6E-05,0,35.1852,19.1437,10.498,74.9448,24.5981,122.0787,0,17.71265,59.998203,30.36051,0,NaN,0,23.197,0,1 / 1,395019,2020-01-19 16:26:10:794
-7.649872,-4.15097,-4.79129,-7.553196,-4.08434,-4.736855,-0.007514,-0.010417,0.001706,-0.00058,0.001266,-0.000839,0,34.0347,19.0948,10.7498,71.9647,24.6086,122.0828,0,15.86241,59.998203,30.36051,0,NaN,0,23.197,0,1 / 1,400019,2020-01-19 16:26:15:794
-7.701339,-4.137802,-4.802063,-7.548122,-4.088658,-4.741215,0.016811,0.012682,0.01602,-4.6E-05,0.0009,0.000229,0,33.4854,18.9941,10.3989,69.5336,24.6518,122.1567,0,15.47366,59.998203,30.36051,0,NaN,0,23.197,0,1 / 1,405019,2020-01-19 16:26:20:794
-7.688171,-4.128235,-4.81163,-7.542197,-4.101616,-4.73945,-0.01125,0.033435,-0.005169,-0.000229,0.003387,0.002182,0,32.84,20.4041,10.408,64.9187,24.7241,122.1449,0,4.15068,59.998203,30.36051,0,NaN,0,23.197,0,1 / 1,410020,2020-01-19 16:26:25:795
-7.706131,-4.110275,-4.841568,-7.550369,-4.080751,-4.744448,-0.006484,-0.009462,-0.002207,-0.001831,-0.004776,0.001999,0,33.4351,18.6951,10.9497,68.6981,24.5899,122.1442,0,8.68079,59.998203,30.36051,0,NaN,0,23.197,0,1 / 1,415019,2020-01-19 16:26:30:794
-7.621139,-4.141403,-4.853531,-7.547406,-4.085657,-4.744939,-0.00758,-0.000898,0.020688,-0.001465,0.003754,-0.001373,0,32.5851,18.5944,11.2991,68.77,24.6089,122.139,0,4.4289,59.998203,30.36051,0,NaN,0,23.197,0,1 / 1,420019,2020-01-19 16:26:35:794
-7.611557,-4.139007,-4.828399,-7.539189,-4.089292,-4.754863,0.042477,-0.002332,-0.005533,0.006531,0.001968,0.008743,0,33.1848,19.7449,11.2991,63.827,24.6665,122.2309,0,5.45882,59.998203,30.36051,0,NaN,0,23.197,0,1 / 1,425019,2020-01-19 16:26:40:794
-7.659454,-4.18689,-4.835571,-7.533277,-4.106857,-4.74909,-0.003023,-0.0064,0.00067,-0.001831,0.00322,-0.006348,0,34.3842,19.8959,10.3485,68.1246,24.7578,122.2279,0,11.04541,59.998203,30.36051,0,NaN,0,23.197,0,1 / 1,430019,2020-01-19 16:26:45:794
-7.655853,-4.14859,-4.802063,-7.536386,-4.098873,-4.751052,0.004673,0.005941,0.015613,-0.001999,0.001785,-0.002792,0,33.7845,19.7952,10.849,67.2801,24.7064,122.228,0,8.67871,59.998203,30.36051,0,NaN,0,23.197,0,1 / 1,435019,2020-01-19 16:26:50:794
-7.639099,-4.214432,-4.784103,-7.545771,-4.137098,-4.70278,-0.003358,-0.028667,0.026318,0.00528,-0.006546,4.6E-05,0,33.8348,19.696,10.6995,67.8133,24.9095,121.9814,0,12.41383,59.998203,30.36051,0,NaN,0,23.197,0,1 / 1,440019,2020-01-19 16:26:55:794
-6.449173,-5.592285,-5.125274,-6.320032,-5.554925,-5.036903,-0.014306,0.049873,0.00067,0.00119,-0.003891,0.021698,0,31.5857,25.9949,8.8989,72.9941,34.6794,128.6597,0,11.67676,59.998203,30.36051,0,NaN,0,23.197,0,1 / 1,445019,2020-01-19 16:27:00:794
-6.410873,-5.690445,-5.104919,-6.298411,-5.581556,-5.034543,-0.002456,-0.001744,-0.001859,-0.00325,-0.001755,0.005371,0,31.485,25.3952,10.7986,75.0972,34.6917,128.6366,0,6.37952,59.998203,30.36051,0,NaN,0,23.197,0,1 / 1,450019,2020-01-19 16:27:05:794
-6.420456,-5.485748,-5.28569,-6.315498,-5.589942,-5.003739,0.013749,0.189307,-0.205688,0.04451,0.006058,0.029877,0,31.1813,25.4974,9.2926,73.9681,34.7513,128.3896,0,19.90973,59.998203,30.36051,0,NaN,0,23.197,0,1 / 1,455019,2020-01-19 16:27:10:794
-6.513824,-5.585098,-5.037887,-6.426245,-5.518125,-4.942069,0.008327,-0.01647,0.014211,-0.001999,0.000366,-0.000671,0,31.4835,25.4547,9.4971,72.1754,34.198,127.5535,0,14.48344,59.998203,30.36051,0,NaN,0,23.197,0,1 / 1,460019,2020-01-19 16:27:15:794
-6.629944,-5.498916,-5.041473,-6.460901,-5.456993,-4.964711,-0.029104,0.057145,0.004849,-0.008575,-0.009033,0.002182,0,31.8863,24.1943,8.5983,77.4724,33.8455,127.5792,0,12.37746,59.998203,30.36051,0,NaN,0,23.197,0,1 / 1,465019,2020-01-19 16:27:20:794
-6.570083,-5.498916,-5.059433,-6.472176,-5.470236,-4.935367,0.000433,0.006083,-0.009378,0.000153,0.005478,-0.000778,0,30.9341,25.3448,8.5495,71.2358,33.9044,127.3274,0,15.38255,59.998203,30.36051,0,NaN,0,23.197,0,1 / 1,470019,2020-01-19 16:27:25:794
-6.561706,-5.559967,-5.024719,-6.477086,-5.465305,-4.934388,0.016524,-0.006979,-0.00245,-1.5E-05,0.003174,-0.001312,0,32.785,24.3439,9.5001,80.939,33.8697,127.301,0,23.5999,59.998203,30.36051,0,NaN,0,23.197,0,1 / 1,475019,2020-01-19 16:27:30:794
-6.722122,-5.401947,-4.955291,-6.591933,-5.448581,-4.798934,-0.036111,0.122503,-0.059628,-0.033401,-0.018845,0.028351,0,32.4341,24.6948,7.9483,72.9332,33.7521,126.0547,0,13.45221,59.998203,30.36051,0,NaN,0,23.197,0,1 / 1,480019,2020-01-19 16:27:35:794
-6.682617,-5.588699,-4.866699,-6.563627,-5.496016,-4.783617,-0.009463,0.002897,0.032582,0.004944,0.013992,0.001526,0,31.0349,23.793,9.1492,75.3157,34.071,125.9911,0,12.64247,59.998203,30.36051,0,NaN,0,23.197,0,1 / 1,485019,2020-01-19 16:27:40:794
-6.609588,-5.673691,-4.87149,-6.49458,-5.567789,-4.794843,-0.00246,-0.023207,0.004043,-0.000916,0.001389,-0.000244,0,31.5857,24.646,8.2489,75.4365,34.5939,126.4379,0,10.46931,59.998203,30.36051,0,NaN,0,23.197,0,1 / 1,490019,2020-01-19 16:27:45:794
-6.544952,-5.621017,-4.899017,-6.44476,-5.588476,-4.837808,-0.022565,0.025686,0.007853,0.041031,0.018082,0.004913,0,31.6849,24.5453,7.9483,75.8822,34.7409,126.894,0,20.58687,59.998203,30.36051,0,NaN,0,23.197,0,1 / 1,495020,2020-01-19 16:27:50:795
-6.831054,-5.427093,-4.985214,-6.683295,-5.359405,-4.772917,-0.021182,-0.057414,0.019926,0.05719,0.00032,0.057098,0,32.9361,23.9456,8.2016,77.4447,33.2151,125.9265,0,20.97182,59.998203,30.36051,0,NaN,0,23.197,0,1 / 1,500019,2020-01-19 16:27:55:794
-6.708954,-5.47258,-5.059433,-6.455163,-5.469938,-4.957926,0.261219,0.028533,0.037084,-0.026077,0.038849,-0.089722,0,31.4865,22.9843,9.0546,78.0537,33.6496,126.8413,0,20.87007,59.998203,30.36051,0,NaN,0,23.197,0,1 / 1,505019,2020-01-19 16:28:00:794
-6.710144,-5.43547,-4.95169,-6.602864,-5.389799,-4.850014,0.02602,-0.042878,0.001397,-0.00441,-0.003052,0.005798,0,32.3349,22.995,8.2977,78.9631,33.34,126.2985,0,14.42853,59.998203,30.36051,0,NaN,0,23.197,0,1 / 1,510019,2020-01-19 16:28:05:794
-6.41806,-6.151336,-4.824798,-6.365777,-5.651473,-4.869098,0.010523,0.024214,-0.013796,-0.031937,-0.00145,0.002945,0,31.6345,24.3958,9.8999,82.7391,35.19,127.4119,0,18.80196,59.998203,30.36051,0,NaN,0,23.197,0,1 / 1,515019,2020-01-19 16:28:10:794
-6.491073,-5.738327,-4.940918,-6.362457,-5.638751,-4.888149,0.002334,-0.013798,-0.001868,0.004288,0.00209,-0.001831,0,32.4005,23.494,8.0551,83.7883,35.0882,127.5313,0,5.69096,59.998203,30.36051,0,NaN,0,23.197,0,1 / 1,520019,2020-01-19 16:28:15:794
-6.602401,-5.622207,-5.01036,-6.412821,-5.545253,-4.929126,-0.067342,0.159276,-0.068757,-0.047729,-0.044067,0.013245,0,30.9845,23.2956,9.549,82.814,34.8086,127.7082,0,5.07459,59.998203,30.36051,0,NaN,0,23.197,0,1 / 1,525019,2020-01-19 16:28:20:794
-6.49945,-5.647354,-5.028305,-6.372756,-5.590329,-4.93017,-0.0046,0.005719,0.002396,-0.001755,0.005478,0.004364,0,31.0852,23.7442,8.9493,77.616,34.7541,127.7267,0,6.72517,59.998203,30.36051,0,NaN,0,23.197,0,1 / 1,530019,2020-01-19 16:28:25:794
-6.872955,-5.485748,-4.841568,-6.679793,-5.435076,-4.691556,-0.033865,0.009612,0.052435,-0.066025,-0.04567,0.009521,0,33.9355,22.9446,7.8979,85.1935,33.7755,125.067,0,34.62351,59.998203,30.36051,0,NaN,0,23.197,0,1 / 1,535019,2020-01-19 16:28:30:794
-6.925628,-5.265472,-4.88945,-6.800744,-5.190824,-4.793288,0.016554,0.028715,-0.016981,-0.02182,-0.010513,-0.00415,0,31.9336,22.7448,8.6502,75.464,32.0396,125.1136,0,5.4333,59.998203,30.36051,0,NaN,0,23.197,0,1 / 1,540019,2020-01-19 16:28:35:794
-6.273208,-5.990921,-5.059433,-6.149202,-5.759117,-5.01899,-0.010054,-0.012959,-0.016417,0.012802,-0.004471,0.014145,0,30.6854,23.7457,8.9981,81.1282,35.9816,129.3017,0,23.90152,59.998203,30.36051,0,NaN,0,23.197,0,1 / 1,545019,2020-01-19 16:28:40:794
-6.383331,-5.856842,-4.961273,-6.280542,-5.716554,-4.90369,0.032644,-0.003376,0.028666,0.024521,0.021622,-0.002014,0,31.485,24.3454,9.05,80.3927,35.6566,127.9818,0,67.98023,59.998203,30.36051,0,NaN,0,23.197,0,1 / 1,550019,2020-01-19 16:28:45:794
-6.564102,-5.580322,-5.06781,-6.41772,-5.521395,-4.94949,-0.024767,0.045006,-0.016675,0.003922,0.003876,-0.004852,0,32.5348,24.1959,10.2493,82.3494,34.3227,127.6448,0,24.55661,59.998203,30.36051,0,NaN,0,23.197,0,1 / 1,555019,2020-01-19 16:28:50:794
-6.635925,-5.538421,-5.037887,-6.495085,-5.457,-4.9199,-0.010344,0.000642,-0.007179,0.002731,0.002518,-0.005035,0,32.785,24.3942,7.6996,79.0748,33.8113,127.1432,0,5.5844,59.998203,30.36051,0,NaN,0,23.197,0,1 / 1,560019,2020-01-19 16:28:55:794
-6.661072,-5.51448,-5.0307,-6.518365,-5.417188,-4.933089,-0.013067,-0.008904,0.003796,0.000244,0.003586,-0.000595,0,31.2347,23.4955,9.2987,77.695,33.5351,127.1123,0,15.02474,59.998203,30.36051,0,NaN,0,23.197,0,1 / 1,565019,2020-01-19 16:29:00:794
-6.432815,-5.829315,-4.924957,-6.356333,-5.658058,-4.873785,0.032542,-0.074209,0.032424,0.061142,0.034302,0.026398,0,31.1401,26.0147,7.9361,71.2153,35.1909,127.6625,0,16.7224,59.998203,30.36051,0,NaN,0,23.197,0,1 / 1,570019,2020-01-19 16:29:05:794
-6.504638,-5.70401,-4.975235,-6.353946,-5.641102,-4.8965,-0.039633,0.035691,0.006849,0.000427,-0.003342,0.009354,0,31.7856,24.8459,8.9996,77.8095,35.1591,127.6515,0,9.97226,59.998203,30.36051,0,NaN,0,23.197,0,1 / 1,575018,2020-01-19 16:29:10:793
-6.445587,-5.806167,-4.958481,-6.333042,-5.658044,-4.90403,0.00224,-0.045572,0.034433,0.01178,0.003403,-0.005737,0,31.8848,24.7452,8.049,77.0379,35.1528,127.8023,0,8.64453,59.998203,30.36051,0,NaN,0,23.197,0,1 / 1,580019,2020-01-19 16:29:15:794
-6.432419,-5.78981,-5.01036,-6.315294,-5.66786,-4.915568,0.010675,-0.007251,0.004683,0.006638,0.001984,-0.001663,0,30.3864,23.3948,8.9493,80.3554,35.2562,127.8783,0,5.09621,59.998203,30.36051,0,NaN,0,23.197,0,1 / 1,585019,2020-01-19 16:29:20:794
-6.518203,-5.727966,-4.930557,-6.398779,-5.607586,-4.876576,-0.008942,-0.023558,0.03022,0.014969,0.020203,0.004547,0,30.6351,24.8947,8.6487,74.2005,34.8769,127.3114,0,16.46086,59.998203,30.36051,0,NaN,0,23.197,0,1 / 1,590019,2020-01-19 16:29:25:794
-6.406479,-5.955414,-4.802047,-6.342533,-5.66865,-4.879453,0.050761,-0.184245,0.165651,0.014786,0.024628,-0.002548,0,30.484,25.1953,8.548,72.2081,35.1717,127.5105,0,18.71385,59.998203,30.36051,0,NaN,0,23.197,0,1 / 1,595019,2020-01-19 16:29:30:794
-6.651489,-5.526443,-4.987213,-6.512435,-5.452654,-4.901749,-0.023162,0.023243,0.001766,0.00502,0.010971,-0.030426,0,32.1838,24.2462,9.5993,77.672,33.6793,126.8998,0,10.2899,59.998203,30.36051,0,NaN,0,23.197,0,1 / 1,600019,2020-01-19 16:29:35:794
-6.59523,-5.576721,-5.027115,-6.511584,-5.440258,-4.916629,0.041602,-0.031822,-0.015916,-0.001724,-4.6E-05,0.005966,0,31.1859,23.5947,8.5983,74.2075,33.6707,127.0261,0,20.04434,59.998203,30.36051,0,NaN,0,23.197,0,1 / 1,605019,2020-01-19 16:29:40:794
-6.633529,-5.558761,-4.947708,-6.538769,-5.449901,-4.869647,0.01766,-0.015161,0.005663,0.003586,0.004242,0.003479,0,31.7352,24.5453,8.6487,73.3665,33.7329,126.6717,0,5.11403,59.998203,30.36051,0,NaN,0,23.197,0,1 / 1,610019,2020-01-19 16:29:45:794
-6.713745,-5.527649,-4.903808,-6.571081,-5.429179,-4.849256,-0.031343,-0.006495,0.027599,-0.00528,-0.005341,-0.003265,0,31.8359,24.4949,8.2993,76.0822,33.5984,126.4533,0,7.36292,59.998203,30.36051,0,NaN,0,23.197,0,1 / 1,615019,2020-01-19 16:29:50:794
-6.724518,-5.404342,-4.983612,-6.618775,-5.33638,-4.887252,0.012681,0.027517,-0.008916,-0.001114,-0.00621,0.001938,0,32.0847,24.8444,8.8989,70.9773,32.9672,126.4419,0,20.99577,59.998203,30.36051,0,NaN,0,23.197,0,1 / 1,620019,2020-01-19 16:29:55:794
-6.745666,-5.433075,-4.984817,-6.604047,-5.362098,-4.879022,-0.011736,0.034482,-0.009838,0.005463,-0.000366,0.00087,0,32.8842,22.2946,8.5495,85.4558,33.1465,126.4567,0,5.60901,59.998203,30.36051,0,NaN,0,23.197,0,1 / 1,625019,2020-01-19 16:30:00:794
-6.723312,-5.791,-4.816421,-6.544609,-5.457354,-4.853426,-0.055123,-0.230596,0.12865,-0.05899,-0.041901,0.04686,0,33.1345,22.8439,8.049,83.0893,33.9725,126.6268,0,19.92774,59.998203,30.36051,0,NaN,0,23.197,0,1 / 1,630019,2020-01-19 16:30:05:794
-6.771194,-5.441452,-4.922958,-6.612594,-5.384991,-4.842092,-0.042959,0.037713,0.003813,-0.000397,-0.000366,0.001053,0,33.4351,22.345,8.2993,84.87,33.3064,126.2136,0,5.23225,59.998203,30.36051,0,NaN,0,23.197,0,1 / 1,635019,2020-01-19 16:30:10:794
1.276505,0.89679,9.28862,1.004347,1.0279,9.700779,0.267258,-0.136126,-0.45949,-0.003616,-0.912216,0.220428,0,-14.3158,-33.7555,-45.5002,156.9424,-7.768,-2.8988,5,52.06105,59.998203,30.36051,0,NaN,0,23.197,0,1 / 1,640019,2020-01-19 16:30:15:794
-4.259277,-1.720459,8.362458,-4.465249,-1.791163,8.545389,0.234787,0.082262,-0.238076,-0.095047,0.106537,-0.081406,1,9.0347,-6.5536,-54.6509,135.8707,11.4462,26.9241,5,43.93424,59.998203,30.36051,0,NaN,0,23.197,0,1 / 1,645019,2020-01-19 16:30:20:794
-1.443298,5.810105,8.84729,-0.624923,6.116582,7.639849,-0.510547,0.214436,-0.975877,0.019119,-0.028748,-0.134842,1,-21.5652,-45.1538,-22.2015,131.1523,-40.9617,6.8032,5,15.27875,59.998203,30.36051,0,NaN,0,23.197,0,1 / 1,650019,2020-01-19 16:30:25:794
