ACCELEROMETER_X,ACCELEROMETER_Y,ACCELEROMETER_Z,GRAVITY_X,GRAVITY_Y,GRAVITY_Z,LINEAR_ACCELERATION_X,LINEAR_ACCELERATION_Y,LINEAR_ACCELERATION_Z,GYROSCOPE_X,GYROSCOPE_Y,GYROSCOPE_Z,LIGHT,MAGNETIC_FIELD_X,MAGNETIC_FIELD_Y,MAGNETIC_FIELD_Z,ORIENTATION_Z_azimuth,ORIENTATION_X_pitch,ORIENTATION_Y_roll,PROXIMITY,SOUND_LEVEL,LOCATION_Latitude,LOCATION_Longitude,LOCATION_Altitude,LOCATION_Altitude-google,LOCATION_Speed,LOCATION_Accuracy,LOCATION_ORIENTATION,Satellites_in_range,Time,Date
1.053848,1.304611,11.621368,-1.969465,-0.530577,9.592189,3.009512,1.83147,2.096397,-0.46843,0.318695,0.054779,1,-2.4643,-10.9558,-47.3007,140.0509,0.7149,9.4552,5,30.41603,59.998184,30.360506,0,NaN,0,22.977,0,0 / 0,26,2020-01-19 16:32:54:875
1.053848,1.304611,11.621368,-1.969465,-0.530577,9.592189,3.009512,1.83147,2.096397,-0.46843,0.318695,0.054779,1,-2.4643,-10.9558,-47.3007,140.0509,0.7149,9.4552,5,30.41603,59.998184,30.360506,0,NaN,0,22.977,0,0 / 0,2526,2020-01-19 16:32:54:875
-5.033005,-7.735901,-3.825622,-4.937477,-7.587923,-3.770296,0.006136,0.00826,0.022305,-0.107834,0.022568,0.107864,0,24.5438,35.199,13.6566,69.9412,51.5065,126.7922,0,14.08626,59.998184,30.360506,0,NaN,0,22.977,0,0 / 0,5027,2020-01-19 16:32:59:876
-6.249267,-6.639755,-4.106537,-6.138319,-6.493781,-4.040078,-0.005394,0.032436,-0.01787,0.01857,-0.016144,-0.009674,0,29.4937,30.5985,14.5569,62.7081,41.3836,123.477,0,18.78969,59.998184,30.360506,0,NaN,0,22.977,0,0 / 0,10027,2020-01-19 16:33:04:876
-6.432815,-6.656906,-4.028335,-6.132978,-6.520303,-4.005323,-0.185324,-0.014859,0.051774,0.023376,-0.099762,0.002579,0,29.5868,29.8904,12.5366,78.9127,41.5667,122.7694,0,19.49152,59.998184,30.360506,0,NaN,0,22.977,0,0 / 0,15027,2020-01-19 16:33:09:876
-5.416473,-7.463348,-3.936157,-5.296573,-7.284884,-3.879068,-0.005763,-0.021482,0.026501,-0.003967,0.004807,0.000443,0,26.1932,34.2499,13.3575,73.1536,47.9727,126.2081,0,17.57973,59.998184,30.360506,0,NaN,0,22.977,0,0 / 1,20027,2020-01-19 16:33:14:876
-5.479522,-7.362793,-3.977249,-5.348263,-7.22181,-3.925803,-0.017393,0.012771,0.032135,0.000641,-0.005035,-0.000412,0,26.4435,33.049,14.7568,84.1537,47.4477,126.3623,0,5.64399,59.998184,30.360506,0,NaN,0,22.977,0,1 / 1,25027,2020-01-19 16:33:19:876
-5.466354,-7.30693,-4.180771,-5.309758,-7.18848,-4.03765,-0.045711,0.031669,-0.058801,0.005249,0.006332,0.015045,0,26.7944,34.7488,14.856,61.7093,47.3336,127.3174,0,13.78764,59.998184,30.360506,0,NaN,0,22.977,0,1 / 1,30026,2020-01-19 16:33:24:875
-5.04657,-7.56871,-4.122101,-4.972423,-7.442327,-4.007139,0.025536,0.022813,-0.034631,-0.047653,0.065811,0.023743,0,23.6938,33.8501,11.4563,68.7599,49.7557,127.8585,0,10.69412,59.998184,30.360506,0,NaN,0,22.977,0,1 / 1,35027,2020-01-19 16:33:29:876
-5.367798,-7.429428,-3.99202,-5.249235,-7.321664,-3.874164,-0.011777,0.041182,-0.039042,0.019989,0.002243,0.00386,0,25.1938,33.3481,13.9572,78.8915,48.3191,126.6127,0,6.98746,59.998184,30.360506,0,NaN,0,22.977,0,1 / 1,40027,2020-01-19 16:33:34:876
-5.627975,-7.282593,-4.105347,-5.288481,-7.223499,-4.002923,-0.227923,0.0933,-0.017974,-0.065414,0.014679,0.009705,0,25.7919,34.0485,13.5574,73.6109,47.6958,126.8101,0,16.77487,59.998184,30.360506,0,NaN,0,22.977,0,1 / 1,45027,2020-01-19 16:33:39:876
-5.485519,-7.342453,-4.043091,-5.361228,-7.19037,-3.965628,-0.012774,-0.002519,0.005025,0.018219,-0.015686,-0.016388,0,26.6922,34.0988,14.1571,76.0584,47.0243,126.6734,0,6.94138,59.998184,30.360506,0,NaN,0,22.977,0,1 / 1,50026,2020-01-19 16:33:44:875
-5.380172,-7.682815,-3.481262,-5.284611,-7.511345,-3.438454,0.016743,-0.011845,0.030263,-0.122406,0.078415,0.119263,0,25.1434,34.5993,11.7065,79.1656,51.0089,122.2651,0,13.76064,59.998184,30.360506,0,NaN,0,22.977,0,1 / 1,55027,2020-01-19 16:33:49:876
-5.485519,-7.367996,-4.013168,-5.345039,-7.227252,-3.920176,-0.026904,0.012827,-0.009693,0.019821,0.014847,-0.005371,0,27.0935,33.3984,14.1571,86.553,47.3118,126.1589,0,16.43219,59.998184,30.360506,0,NaN,0,22.977,0,1 / 1,60026,2020-01-19 16:33:54:875
-5.532608,-7.287781,-4.07222,-5.372218,-7.205731,-3.922638,-0.051196,0.064411,-0.069852,0.011993,-0.001129,-0.005737,0,25.5936,33.8486,13.1561,67.7336,47.3361,126.029,0,16.91066,59.998184,30.360506,0,NaN,0,22.977,0,1 / 1,65027,2020-01-19 16:33:59:876
-5.502273,-7.423858,-3.90303,-5.391623,-7.243226,-3.82576,0.003784,-0.026898,0.003929,-0.001495,-0.002899,0.00119,0,25.9933,32.4493,13.5071,91.7938,47.6618,125.3041,0,6.47863,59.998184,30.360506,0,NaN,0,22.977,0,1 / 1,70026,2020-01-19 16:34:04:875
-5.383362,-7.548752,-3.762176,-5.150453,-7.439344,-3.781452,-0.130452,0.038581,0.094499,0.122971,0.125641,0.009186,0,26.8433,34.2987,13.208,88.4629,48.9193,126.458,0,15.16632,59.998184,30.360506,0,NaN,0,22.977,0,1 / 1,75027,2020-01-19 16:34:09:876
-5.447204,-7.673248,-3.499618,-5.287379,-7.484571,-3.492162,-0.036738,-0.014441,0.073839,0.022308,0.01236,-0.036087,0,25.5432,33.699,12.0575,80.656,49.2936,123.6343,0,11.46498,59.998184,30.360506,0,NaN,0,22.977,0,1 / 1,80027,2020-01-19 16:34:14:876
-5.841049,-7.081085,-3.923385,-5.732666,-6.981686,-3.816147,0.018836,0.055539,-0.02255,-0.141403,0.006332,0.220993,0,25.8423,34.0988,11.0077,81.8231,48.3858,122.3517,0,12.1819,59.998184,30.360506,0,NaN,0,22.977,0,1 / 1,85028,2020-01-19 16:34:19:877
-5.24768,-7.591446,-3.868317,-5.177975,-7.42356,-3.774879,0.042607,-0.006867,-0.011559,-0.004868,0.014145,0.00705,0,25.6546,34.0607,13.2553,84.112,49.2222,125.9702,0,16.61667,59.998184,30.360506,0,NaN,0,22.977,0,1 / 1,90027,2020-01-19 16:34:24:876
-5.328689,-7.587066,-3.768158,-5.228963,-7.430723,-3.689535,0.011103,0.001153,-0.000423,-0.006638,0.011124,0.002792,0,26.5442,35.35,13.2065,85.3918,49.3195,125.1228,0,18.32094,59.998184,30.360506,0,NaN,0,22.977,0,1 / 1,95027,2020-01-19 16:34:29:876
-5.417282,-7.541168,-3.868317,-5.232013,-7.390355,-3.76551,-0.032011,-0.101116,0.076921,0.023544,0.088715,-0.022247,0,24.9924,33.699,12.4557,68.1627,48.7266,125.4347,0,18.01016,59.998184,30.360506,0,NaN,0,22.977,0,1 / 1,100026,2020-01-19 16:34:34:875
-5.736908,-7.395126,-3.815643,-5.426566,-7.346802,-3.570332,-0.197647,0.104249,-0.171165,0.05336,-0.035538,0.166946,0,25.943,35.2982,13.0081,81.0803,49.7529,124.8447,0,29.17355,59.998184,30.360506,0,NaN,0,22.977,0,1 / 1,105026,2020-01-19 16:34:39:875
-5.535385,-7.690017,-3.413025,-5.444695,-7.459181,-3.299439,0.027723,-0.068612,-0.041829,0.007553,0.009384,0.004501,0,26.9928,34.0988,10.8063,87.667,49.4921,121.0383,0,9.50034,59.998184,30.360506,0,NaN,0,22.977,0,1 / 1,110026,2020-01-19 16:34:44:875
-5.699798,-7.525604,-3.314056,-5.599009,-7.371668,-3.23728,0.018404,0.002993,-0.00786,0.003815,0.004059,0.005569,0,28.2928,33.7494,10.5072,89.378,48.7533,119.9942,0,5.16093,59.998184,30.360506,0,NaN,0,22.977,0,1 / 1,115027,2020-01-19 16:34:49:876
-5.790375,-7.4897,-3.345581,-5.631628,-7.334136,-3.265821,-0.02891,0.013524,-0.004467,-0.008072,-0.012451,0.019943,0,27.1423,32.1991,10.1074,83.3877,48.5658,120.2792,0,12.87486,59.998184,30.360506,0,NaN,0,22.977,0,1 / 1,120027,2020-01-19 16:34:54:876
-5.845443,-7.325683,-3.47168,-5.847544,-7.142583,-3.310607,0.121238,-0.037578,-0.093623,-0.008789,-0.026474,0.016739,0,28.392,33.1497,10.6064,79.4631,46.9177,119.5336,0,20.52976,59.998184,30.360506,0,NaN,0,22.977,0,1 / 1,125027,2020-01-19 16:34:59:876
-5.945205,-7.31691,-3.395065,-5.834951,-7.137308,-3.344034,0.01339,-0.02836,0.01983,-0.007904,-0.008911,0.015503,0,29.0436,32.0496,10.5072,79.109,46.9264,119.8143,0,13.85205,59.998184,30.360506,0,NaN,0,22.977,0,1 / 1,130027,2020-01-19 16:35:04:876
-6.138733,-7.212768,-3.186767,-6.025096,-7.074244,-3.134275,0.016725,0.014536,0.015321,-0.020859,-0.012634,-0.009888,0,28.6438,33.049,10.907,80.0945,46.1717,117.4267,0,7.3552,59.998184,30.360506,0,NaN,0,22.977,0,1 / 1,135027,2020-01-19 16:35:09:876
-6.173843,-7.170059,-3.321243,-6.024773,-7.021784,-3.250699,-0.016561,0.006163,0.000952,-0.04306,-0.016891,-0.030655,0,28.3432,31.1493,10.2066,89.0717,45.9541,117.5604,0,11.63467,59.998184,30.360506,0,NaN,0,22.977,0,1 / 1,140027,2020-01-19 16:35:14:876
-6.243286,-7.039581,-3.361954,-6.25723,-6.831124,-3.21764,0.142666,-0.06793,-0.078122,-0.020676,-0.0121,0.003967,0,29.4937,32.6492,11.6577,54.492,44.2293,117.1605,0,8.91199,59.998184,30.360506,0,NaN,0,22.977,0,1 / 1,145027,2020-01-19 16:35:19:876
-6.531372,-6.887146,-3.232651,-6.357269,-6.762127,-3.166884,-0.034327,0.023659,0.003863,-0.002396,0.020752,0.002548,0,29.744,31.2988,10.4584,79.3395,43.6237,116.5811,0,6.95945,59.998184,30.360506,0,NaN,0,22.977,0,1 / 1,150027,2020-01-19 16:35:24:876
-6.264816,-6.984909,-3.278152,-6.225659,-6.869045,-3.198089,0.087693,0.024096,-0.014901,-0.012161,0.027313,0.002899,0,29.5929,32.7484,10.5072,69.8128,44.3855,116.9299,0,20.74918,59.998184,30.360506,0,NaN,0,22.977,0,1 / 1,155026,2020-01-19 16:35:29:875
-6.365387,-6.876785,-3.573425,-6.26439,-6.708522,-3.453046,0.036937,-0.020549,-0.044347,0.018372,0.058212,0.033081,0,29.4937,29.7989,9.7076,77.5811,43.2533,118.5887,0,11.22371,59.998184,30.360506,0,NaN,0,22.977,0,1 / 1,160027,2020-01-19 16:35:34:876
-6.328277,-6.94342,-3.395859,-6.26424,-6.740647,-3.390183,0.061808,-0.067357,0.062431,0.024414,-0.028442,-0.010239,0,29.8431,30.4489,12.1567,93.5422,43.3629,118.3734,0,22.3436,59.998184,30.360506,0,NaN,0,22.977,0,1 / 1,165026,2020-01-19 16:35:39:875
-6.492279,-6.683639,-3.456924,-6.273199,-6.718467,-3.417535,-0.086569,0.176744,0.032801,0.02655,0.011337,-0.001892,0,29.9438,31.0486,12.558,84.5979,43.2307,118.8677,0,34.54753,59.998184,30.360506,0,NaN,0,22.977,0,1 / 1,170027,2020-01-19 16:35:44:876
-6.625152,-7.097442,-3.571838,-6.208647,-6.739072,-3.493992,-0.275166,-0.204956,0.001694,0.003998,-0.048859,-0.045563,0,29.5929,31.0989,11.9568,83.4107,43.4267,119.7268,0,30.33818,59.998184,30.360506,0,NaN,0,22.977,0,1 / 1,175027,2020-01-19 16:35:49:876
-5.849029,-6.956985,-3.633682,-6.139889,-6.79838,-3.500596,0.437723,0.00401,-0.049354,0.06543,0.121231,0.051193,0,28.4424,30.249,12.3566,80.6532,44.0022,119.3857,0,24.33551,59.998184,30.360506,0,NaN,0,22.977,0,1 / 1,180027,2020-01-19 16:35:54:876
-5.971145,-6.683655,-3.193954,-6.499286,-6.622256,-3.174176,0.667219,0.080309,0.048145,-0.017838,0.196518,0.125397,0,30.6931,29.7989,9.9075,95.2054,43.2477,114.2334,0,35.75995,59.998184,30.360506,0,NaN,0,22.977,0,1 / 1,185027,2020-01-19 16:35:59:876
-6.716125,-6.793777,-3.021164,-6.585857,-6.637678,-2.956028,0.009668,-0.015061,-0.002326,0.006119,-0.021683,-0.017517,0,29.9927,29.4983,11.6074,99.5448,42.2856,114.5493,0,26.66974,59.998184,30.360506,0,NaN,0,22.977,0,1 / 1,190026,2020-01-19 16:36:04:875
-6.448791,-6.832885,-2.935776,-6.531214,-6.703427,-2.92877,0.229428,0.021421,0.058915,0.019272,0.010086,-0.011475,0,30.3925,30.3986,9.0073,75.2574,42.5871,114.1764,0,16.65112,59.998184,30.360506,0,NaN,0,22.977,0,1 / 1,195027,2020-01-19 16:36:09:876
-6.760422,-6.789383,-3.026764,-6.606608,-6.619666,-2.950106,0.067241,0.000136,0.009522,0.01767,-0.008911,-0.010956,0,29.6433,29.599,9.8068,71.9721,42.2755,114.1918,0,25.80101,59.998184,30.360506,0,NaN,0,22.977,0,1 / 1,200027,2020-01-19 16:36:14:876
-6.462341,-6.512863,-3.989227,-6.342576,-6.367471,-3.923957,0.009334,-0.015787,0.014599,-0.003632,-0.00145,0.001297,0,29.6433,30.0995,15.2847,69.4315,40.471,121.7686,0,14.5949,59.998184,30.360506,0,NaN,0,22.977,0,1 / 1,205027,2020-01-19 16:36:19:876
-6.856201,-6.581085,-3.136886,-6.735461,-6.43368,-3.067849,0.019819,-0.013143,-0.005016,0.002396,0.005829,-0.004745,0,31.6437,30.0995,10.257,78.7377,40.9816,114.5128,0,37.11888,59.998184,30.360506,0,NaN,0,22.977,0,1 / 1,210026,2020-01-19 16:36:24:875
-6.923233,-6.537994,-3.163223,-6.762246,-6.388486,-3.103167,-0.025339,-0.021358,0.002192,0.00116,0.002808,0.000763,0,32.0435,29.0482,10.3073,85.7565,40.6801,114.6556,0,15.18486,59.998184,30.360506,0,NaN,0,22.977,0,1 / 1,215027,2020-01-19 16:36:29:876
-6.890915,-6.504471,-3.215896,-6.759974,-6.370518,-3.144781,0.016408,0.004907,-0.002568,-0.000443,0.002808,-0.00296,0,29.6433,28.45,10.6567,76.8641,40.4869,114.916,0,27.47867,59.998184,30.360506,0,NaN,0,22.977,0,1 / 1,220027,2020-01-19 16:36:34:876
-6.91365,-6.494903,-3.163223,-6.767768,-6.384741,-3.098837,-0.009424,0.018573,-0.001904,0.003281,0.002808,0.001831,0,31.4438,29.7989,10.6079,63.6366,40.6294,114.5746,0,37.91728,59.998184,30.360506,0,NaN,0,22.977,0,1 / 1,225027,2020-01-19 16:36:39:876
-6.878937,-6.491302,-3.175201,-6.768997,-6.37925,-3.107448,0.026223,0.01627,-0.005245,0.001694,0.000153,0.001831,0,30.7419,30.0995,11.3586,62.7435,40.5456,114.6068,0,37.1032,59.998184,30.360506,0,NaN,0,22.977,0,1 / 1,230026,2020-01-19 16:36:44:875
-6.928024,-6.532013,-3.139282,-6.771786,-6.384653,-3.090227,-0.017369,-0.01643,0.014316,-0.00737,0.007614,-0.004028,0,31.543,29.599,8.757,74.3775,40.5671,114.543,0,12.49278,59.998184,30.360506,0,NaN,0,22.977,0,1 / 1,235027,2020-01-19 16:36:49:876
-6.932815,-6.515259,-3.184769,-6.764188,-6.37232,-3.13204,-0.021688,-0.004511,0.01531,-0.006302,0.008667,-0.005096,0,30.1422,28.9993,9.7076,65.1987,40.5206,114.8265,0,14.66397,59.998184,30.360506,0,NaN,0,22.977,0,1 / 1,240027,2020-01-19 16:36:54:876
-6.971512,-6.46138,-3.136093,-6.839215,-6.321126,-3.07228,0.017011,-0.002257,0.003258,-0.010208,-0.004471,0.020645,0,32.1442,29.6753,10.8902,71.4422,40.3577,114.2266,0,24.96434,59.998184,30.360506,0,NaN,0,22.977,0,1 / 1,245026,2020-01-19 16:36:59:875
-7.092026,-6.226745,-3.206329,-6.726772,-6.363579,-3.228898,0.761755,-0.116131,-0.666848,0.024597,-0.058975,-0.049835,0,33.0933,28.1494,10.0571,65.1357,40.3286,116.0081,0,21.91206,59.998184,30.360506,0,NaN,0,22.977,0,1 / 1,250027,2020-01-19 16:37:04:876
-6.963928,-6.519241,-3.14328,-6.825885,-6.312734,-3.118825,0.001348,-0.077595,0.039235,0.026016,0.046143,0.01088,0,31.5933,29.7485,11.557,72.2467,40.324,114.8448,0,12.08588,59.998184,30.360506,0,NaN,0,22.977,0,1 / 1,255026,2020-01-19 16:37:09:875
-6.927215,-6.483734,-3.201538,-6.79895,-6.339885,-3.12258,0.02255,-0.003216,-0.009692,-0.001328,-0.009262,0.008942,0,30.7922,28.9001,10.2081,73.0209,40.3016,114.8257,0,23.70665,59.998184,30.360506,0,NaN,0,22.977,0,1 / 1,260027,2020-01-19 16:37:14:876
-6.942779,-6.451812,-3.129303,-6.853867,-6.302193,-3.078514,0.049367,-0.02247,0.011322,0.002045,-0.007126,-0.001358,0,31.9931,28.1494,10.4568,86.8862,39.7872,114.4248,0,38.68605,59.998184,30.360506,0,NaN,0,22.977,0,1 / 1,265027,2020-01-19 16:37:19:876
-7.468704,-6.766647,-3.009201,-6.936425,-6.232994,-3.034166,-0.387084,-0.403182,0.088477,0.024414,-0.119156,-0.041306,0,32.5424,29.2984,10.8063,82.3902,39.4368,113.025,0,40.51236,59.998184,30.360506,0,NaN,0,22.977,0,1 / 1,270027,2020-01-19 16:37:24:876
-5.344253,-7.836853,-2.927399,-5.629468,-7.449921,-2.996357,-0.361519,0.415933,0.269931,-0.033997,-0.07814,0.0242,0,27.4918,33.7982,10.0571,77.0821,48.8511,118.0638,0,34.24344,59.998184,30.360506,0,NaN,0,22.977,0,1 / 1,275027,2020-01-19 16:37:29:876
-6.053329,-7.510833,-2.774567,-5.98316,-7.283733,-2.705442,0.068547,-0.058231,-0.0064,0.010559,0.002808,0.011063,0,27.9938,32.7988,7.5058,80.6949,47.9809,114.0045,0,23.72128,59.998184,30.360506,0,NaN,0,22.977,0,1 / 1,280027,2020-01-19 16:37:34:876
-6.212951,-7.409881,-2.706329,-6.024281,-7.268341,-2.655114,-0.056411,0.018032,0.007076,-0.026184,-0.001984,-0.016983,0,28.4927,32.8476,8.757,79.4002,47.7457,113.2121,0,26.21553,59.998184,30.360506,0,NaN,0,22.977,0,1 / 1,285026,2020-01-19 16:37:39:875
-6.366989,-7.263046,-3.161636,-5.989364,-7.097025,-3.151209,-0.236868,0.000768,0.06363,-0.002747,0.058563,0.019943,0,29.2419,33.4991,9.8572,79.6551,46.3487,117.5105,0,31.68227,59.998184,30.360506,0,NaN,0,22.977,0,1 / 1,290027,2020-01-19 16:37:44:876
-6.208954,-7.15889,-3.401443,-6.040633,-6.992812,-3.283551,-0.038091,-0.01532,-0.047102,0.028671,-0.004639,0.014786,0,28.8422,32.4478,12.6572,95.0939,45.5922,118.8754,0,21.30626,59.998184,30.360506,0,NaN,0,22.977,0,1 / 1,295026,2020-01-19 16:37:49:875
-6.655075,-6.823303,-3.325638,-6.459578,-6.625049,-3.248532,-0.054255,-0.053395,-0.006075,0.00737,-0.026123,0.041245,0,29.4937,29.1992,12.0087,96.0836,42.8787,117.0414,0,23.62314,59.998184,30.360506,0,NaN,0,22.977,0,1 / 1,300027,2020-01-19 16:37:54:876
-6.607589,-6.880768,-3.13768,-6.437298,-6.697093,-3.143331,-0.03816,-0.04621,0.070171,0.02388,0.009384,0.060074,0,30.043,30.7999,11.8576,80.2541,43.3323,116.4407,0,22.64861,59.998184,30.360506,0,NaN,0,22.977,0,1 / 1,305027,2020-01-19 16:37:59:876
-6.685013,-6.794174,-3.084213,-6.54496,-6.642222,-3.035581,-0.00383,-0.013706,0.014548,0.01181,-0.009964,-0.00296,0,30.3925,30.6488,10.0067,66.9952,42.6086,115.0687,0,6.71365,59.998184,30.360506,0,NaN,0,22.977,0,1 / 1,310027,2020-01-19 16:38:04:876
-6.655075,-6.821716,-3.078232,-6.551279,-6.657119,-2.988964,0.034891,-0.02367,-0.025992,-0.009491,-0.004639,0.015152,0,30.7922,30.2994,10.5576,94.325,42.7528,114.5244,0,17.10925,59.998184,30.360506,0,NaN,0,22.977,0,1 / 1,315027,2020-01-19 16:38:09:876
-6.633529,-6.893539,-3.122528,-6.512373,-6.669935,-3.044888,0.000467,0.020979,0.000896,0.000626,0.000687,0.004501,0,28.7933,29.7989,10.2066,68.9011,42.8549,115.0586,0,12.61971,59.998184,30.360506,0,NaN,0,22.977,0,1 / 1,320027,2020-01-19 16:38:14:876
-6.658676,-6.865997,-3.014786,-6.511019,-6.712855,-2.95205,-0.006861,0.020702,-0.002778,0.018204,-0.014755,-0.008286,0,29.9423,31.6986,10.907,57.3994,43.1979,114.3892,0,31.36102,59.998184,30.360506,0,NaN,0,22.977,0,1 / 1,325027,2020-01-19 16:38:19:876
-6.719726,-6.84526,-3.034332,-6.545116,-6.67911,-2.953189,-0.034621,-0.023296,-0.017979,0.006302,-0.004639,0.00769,0,30.8929,31.0989,10.1578,79.8265,42.9281,114.2851,0,15.96594,59.998184,30.360506,0,NaN,0,22.977,0,1 / 1,330027,2020-01-19 16:38:24:876
-6.85141,-6.803756,-2.772964,-6.669019,-6.65901,-2.711485,-0.039705,-0.002275,-0.003467,-0.011627,-0.031799,0.009827,0,30.3925,29.9484,9.7076,73.7054,42.7679,112.1256,0,25.02249,59.998184,30.360506,0,NaN,0,22.977,0,1 / 1,335027,2020-01-19 16:38:29:876
-6.673034,-6.878769,-2.983261,-6.525676,-6.720373,-2.902156,-0.001385,-0.008068,-0.016187,0.007904,-0.005356,-0.009354,0,28.9429,30.6992,10.0082,58.3271,43.2582,113.9761,0,29.58338,59.998184,30.360506,0,NaN,0,22.977,0,1 / 1,340027,2020-01-19 16:38:34:876
-6.887314,-6.781006,-2.919021,-6.592678,-6.661837,-2.885639,0.135217,0.053516,-0.029726,0.010742,0.027313,0.028458,0,30.2933,30.6992,10.0586,64.7015,42.7904,113.6392,0,34.62886,59.998184,30.360506,0,NaN,0,22.977,0,1 / 1,345026,2020-01-19 16:38:39:875
-6.65747,-6.868393,-2.978866,-6.53401,-6.709161,-2.909338,-0.015015,0.014006,-0.016964,9.2E-05,0.000687,-0.001892,0,31.044,30.5985,11.1572,86.1134,43.1683,114.0015,0,16.38051,59.998184,30.360506,0,NaN,0,22.977,0,1 / 1,350027,2020-01-19 16:38:44:876
-6.717331,-6.905502,-2.855575,-6.492474,-6.786103,-2.822582,0.093753,-0.025549,-0.009654,-0.009491,0.02092,0.018341,0,30.5923,31.4987,9.7565,92.7722,43.9065,113.3641,0,16.09709,59.998184,30.360506,0,NaN,0,22.977,0,1 / 1,355027,2020-01-19 16:38:49:876
-6.942383,-6.497299,-3.126114,-6.723245,-6.458142,-3.043149,-0.073209,0.101017,-0.016913,0.00116,-0.013168,-0.022141,0,30.1926,29.0497,10.3073,71.2066,41.1892,114.353,0,14.27422,59.998184,30.360506,0,NaN,0,22.977,0,1 / 1,360027,2020-01-19 16:38:54:876
-6.949966,-6.663696,-3.138092,-6.774621,-6.386551,-3.080073,-0.027853,-0.138103,0.009038,0.023529,0.007431,-0.005264,0,31.4926,29.6982,11.4059,63.2018,40.6357,114.4489,0,14.17819,59.998184,30.360506,0,NaN,0,22.977,0,1 / 1,365026,2020-01-19 16:38:59:875
-6.931213,-6.617004,-3.103775,-6.722776,-6.449007,-3.063491,-0.069662,-0.034874,0.022954,0.013763,-0.019379,0.005737,0,31.7429,28.949,10.907,95.2858,41.1183,114.4982,0,9.46725,59.998184,30.360506,0,NaN,0,22.977,0,1 / 1,370027,2020-01-19 16:39:04:876
-6.973907,-6.54837,-3.044708,-6.796533,-6.410754,-2.979892,-0.036523,-0.004759,-0.003061,-0.013229,0.030151,0.010361,0,31.2424,29.8981,11.2076,62.1308,40.8223,113.6747,0,10.93362,59.998184,30.360506,0,NaN,0,22.977,0,1 / 1,375026,2020-01-19 16:39:09:875
-6.925232,-6.52243,-3.326828,-6.741974,-6.337066,-3.249273,-0.031538,-0.042756,-0.004434,-0.014465,0.04277,0.019058,0,30.7938,28.1494,11.6074,90.9457,40.2558,115.7316,0,15.51798,59.998184,30.360506,0,NaN,0,22.977,0,1 / 1,380027,2020-01-19 16:39:14:876
-6.814697,-6.692428,-2.996429,-6.674977,-6.555415,-2.939659,-0.001913,-0.001675,0.00392,-0.002396,-0.001099,-0.00563,0,30.8426,29.6997,10.6567,81.0142,41.9488,113.7687,0,4.398,59.998184,30.360506,0,NaN,0,22.977,0,1 / 1,385027,2020-01-19 16:39:19:876
-6.266021,-6.541595,-2.988449,-6.611026,-6.494287,-3.207641,-0.960902,0.227453,0.097852,0.050156,0.027847,-0.084457,0,30.5923,29.9988,11.7065,78.8354,41.4704,115.8825,0,13.46304,59.998184,30.360506,0,NaN,0,22.977,0,1 / 1,390026,2020-01-19 16:39:24:875
-7.631515,-5.480163,-3.619324,-7.417907,-5.292928,-3.623526,-0.079123,-0.091276,0.069896,-0.040039,-0.009796,0.015671,0,32.7942,25.798,14.5569,23.3533,32.6652,116.0348,0,20.99123,59.998184,30.360506,0,NaN,0,22.977,0,1 / 1,395027,2020-01-19 16:39:29:876
-7.710525,-5.036041,-3.976456,-7.544323,-4.915244,-3.885093,-0.01299,-0.020977,-0.012464,-0.011093,0.012222,0.006088,0,34.4925,23.5992,13.5071,52.4373,30.106,117.2171,0,5.20679,59.998184,30.360506,0,NaN,0,22.977,0,1 / 1,400027,2020-01-19 16:39:34:876
-7.728882,-5.014084,-3.857544,-7.591191,-4.929929,-3.773593,0.004332,-0.015264,0.00105,0.002228,-0.000916,0.000229,0,34.343,24.6994,14.9567,30.1256,30.1622,116.458,0,15.26109,59.998184,30.360506,0,NaN,0,22.977,0,1 / 1,405028,2020-01-19 16:39:39:877
-7.781555,-5.071548,-3.644455,-7.659883,-4.954459,-3.598596,-0.001677,0.023968,0.011685,0.002228,0.001755,0.003433,0,34.2926,25.3494,13.4567,39.7538,30.3456,115.164,0,3.62132,59.998184,30.360506,0,NaN,0,22.977,0,1 / 1,410026,2020-01-19 16:39:44:875
-7.770782,-5.05719,-3.677978,-7.647279,-4.962768,-3.613921,0.018559,-0.009274,0.006867,-0.015244,0.002625,-0.011642,0,34.6939,25.5981,14.6072,23.7308,30.4018,115.2943,0,3.76505,59.998184,30.360506,0,NaN,0,22.977,0,1 / 1,415028,2020-01-19 16:39:49:877
-7.819854,-5.026062,-3.693542,-7.651221,-4.956348,-3.61439,-0.022242,0.024273,-0.002885,0.001266,-0.008041,-0.002045,0,34.2438,24.0997,14.2578,40.93,30.3584,115.2858,0,4.27776,59.998184,30.360506,0,NaN,0,22.977,0,1 / 1,420026,2020-01-19 16:39:54:875
-7.819854,-5.060776,-3.662414,-7.661151,-4.953765,-3.596855,-0.023103,0.046024,-0.011624,-0.004059,0.003677,0.022446,0,34.3933,24.9985,14.4073,30.4381,30.3409,115.1497,0,5.0968,59.998184,30.360506,0,NaN,0,22.977,0,1 / 1,425027,2020-01-19 16:39:59:876
-7.824249,-5.318146,-3.46849,-7.583035,-5.278398,-3.287321,-0.105253,0.054892,-0.122229,0.091278,0.045227,0.022629,0,34.0408,25.0961,13.1088,46.8487,32.5644,113.4372,0,5.69888,59.998184,30.360506,0,NaN,0,22.977,0,1 / 1,430026,2020-01-19 16:40:04:875
-7.790329,-5.083114,-3.680374,-7.654465,-4.968129,-3.591272,0.004387,-0.023955,-0.023301,-0.010452,0.004211,0.003632,0,35.3378,25.2975,14.2548,41.103,30.4516,115.0893,0,36.12229,59.998184,30.360506,0,NaN,0,22.977,0,1 / 1,435026,2020-01-19 16:40:09:875
-7.369751,-5.07753,-3.872711,-7.429152,-5.113236,-3.851351,0.199114,0.131866,0.051069,-0.000336,0.008835,0.014816,0,33.1436,23.9975,14.4073,56.24,31.4265,117.4027,0,35.50876,59.998184,30.360506,0,NaN,0,22.977,0,1 / 1,440027,2020-01-19 16:40:14:876
-7.588821,-5.202026,-3.695938,-7.501865,-5.145077,-3.663411,0.048088,0.035669,0.033419,0.009781,-0.025085,0.010208,0,33.0002,24.3866,15.4236,38.5209,31.6744,116.2058,0,14.6418,59.998184,30.360506,0,NaN,0,22.977,0,1 / 1,445027,2020-01-19 16:40:19:876
-7.764786,-5.172104,-3.625305,-7.599506,-5.071806,-3.562959,-0.02548,-0.006997,0.003198,0.012451,-0.022949,0.00914,0,33.0933,25,15.7562,22.2806,31.2458,115.3803,0,19.54775,59.998184,30.360506,0,NaN,0,22.977,0,1 / 1,450027,2020-01-19 16:40:24:876
-7.792724,-5.118637,-3.620926,-7.629625,-5.052351,-3.526041,-0.021167,0.027702,-0.029291,-0.013123,0.015396,0.002563,0,34.4437,24.8489,14.1068,5.2559,31.1099,114.9575,0,12.71205,59.998184,30.360506,0,NaN,0,22.977,0,1 / 1,455027,2020-01-19 16:40:29:876
-7.800308,-5.217193,-3.431381,-7.653417,-5.115859,-3.379879,0.007079,0.001585,0.016494,-0.003891,-0.000397,-0.001343,0,32.4936,23.5992,13.2065,22.8096,31.4488,113.8273,0,4.64387,59.998184,30.360506,0,NaN,0,22.977,0,1 / 1,460027,2020-01-19 16:40:34:876
-7.761993,-5.144577,-3.568237,-7.611008,-5.093487,-3.507039,-0.021864,0.035321,-0.001702,-0.0923,-0.076035,-0.068268,0,33.8455,25.1495,14.6057,16.3463,31.2914,114.7395,0,4.93199,59.998184,30.360506,0,NaN,0,22.977,0,1 / 1,465027,2020-01-19 16:40:39:876
-7.837021,-5.117431,-3.452927,-7.683102,-5.049143,-3.412695,-0.013255,0.024151,0.022249,0.003571,0.039017,-0.012344,0,35.5942,25.0992,13.5071,49.2728,30.9887,113.9499,0,7.58597,59.998184,30.360506,0,NaN,0,22.977,0,1 / 1,470027,2020-01-19 16:40:44:876
-7.167434,-6.381973,-2.927399,-6.971528,-6.266737,-2.880309,-0.055128,0.011311,0.011073,0.019379,-0.000397,0.008789,0,30.8426,31.1996,10.6079,30.3654,39.7195,112.4481,0,22.82832,59.998184,30.360506,0,NaN,0,22.977,0,1 / 1,475026,2020-01-19 16:40:49:875
-7.433197,-6.083099,-2.948944,-7.226224,-5.960018,-2.90349,-0.042819,0.012309,0.020503,0.004456,0.012741,0.002213,0,30.5435,28.5995,11.2564,41.1926,37.4137,111.7208,0,7.6683,59.998184,30.360506,0,NaN,0,22.977,0,1 / 1,480027,2020-01-19 16:40:54:876
-7.2285,-5.948227,-3.058288,-7.266223,-5.903471,-2.919146,0.183186,0.073426,-0.080704,-0.003357,-0.009979,-0.004364,0,31.9428,28.3981,11.557,23.9197,37.0123,111.8874,0,11.40883,59.998184,30.360506,0,NaN,0,22.977,0,1 / 1,485027,2020-01-19 16:40:59:876
-7.657058,-5.53363,-3.211105,-7.50395,-5.475824,-3.142683,0.003539,0.004698,0.004853,-0.044006,0.028183,0.091156,0,32.2418,26.3977,13.0066,9.2148,33.9438,112.7241,0,9.52142,59.998184,30.360506,0,NaN,0,22.977,0,1 / 1,490027,2020-01-19 16:41:04:876
-7.739654,-5.416321,-3.213501,-7.605325,-5.324152,-3.159556,0.0102,0.00901,0.006098,0.016708,-0.012833,-0.009506,0,34.0927,26.4496,12.1063,40.612,32.8821,112.56,0,4.39677,59.998184,30.360506,0,NaN,0,22.977,0,1 / 1,495026,2020-01-19 16:41:09:875
-7.714508,-5.508484,-3.060272,-7.583766,-5.413882,-3.057244,0.15494,-0.059231,0.09882,-0.128693,0.086777,0.043228,0,32.7942,24.9985,12.7563,70.8965,34.0142,110.8648,0,8.64273,59.998184,30.360506,0,NaN,0,22.977,0,1 / 1,500026,2020-01-19 16:41:14:875
-7.898071,-5.370422,-3.013595,-7.725209,-5.255745,-2.978033,-0.025853,-0.014662,0.021109,0.005157,0.000488,0.006653,0,34.2438,25.6989,13.1577,2.239,32.4449,111.073,0,10.89705,59.998184,30.360506,0,NaN,0,22.977,0,1 / 1,505027,2020-01-19 16:41:19:876
-7.679001,-5.198044,-2.899872,-7.667926,-5.337314,-2.981,0.132133,0.238951,0.136802,0.065704,0.005814,0.046066,0,34.7443,25.9979,12.1582,42.7922,32.9367,111.3946,0,6.55159,59.998184,30.360506,0,NaN,0,22.977,0,1 / 1,510027,2020-01-19 16:41:24:876
-7.884903,-5.223984,-3.165619,-7.748055,-5.141464,-3.115026,0.006163,0.01238,0.006903,0.00766,0.005112,-0.006317,0,33.1924,25.3494,11.8073,22.1453,31.62,111.9021,0,4.64104,59.998184,30.360506,0,NaN,0,22.977,0,1 / 1,515028,2020-01-19 16:41:29:877
-7.876129,-5.272659,-3.235046,-7.722465,-5.157172,-3.152376,9.3E-05,-0.012805,-0.019905,-0.009918,0.008469,0.002213,0,33.4427,23.5992,11.4563,46.6439,31.7279,112.2057,0,5.22106,59.998184,30.360506,0,NaN,0,22.977,0,1 / 1,520026,2020-01-19 16:41:34:875
-7.891693,-5.247528,-3.191955,-7.744843,-5.13607,-3.131864,-0.002671,-0.015844,-0.001788,0.000198,0.000488,-0.001511,0,34.5428,25.798,13.5071,3.3804,31.583,112.0175,0,20.58875,59.998184,30.360506,0,NaN,0,22.977,0,1 / 1,525026,2020-01-19 16:41:39:875
-7.879715,-5.290619,-3.158432,-7.71863,-5.189636,-3.108184,-0.016466,-0.003748,0.007988,-0.012054,0.012207,0.00914,0,34.1934,26.4481,10.8078,37.9919,31.9511,111.934,0,23.98514,59.998184,30.360506,0,NaN,0,22.977,0,1 / 1,530027,2020-01-19 16:41:44:876
-7.957123,-5.22557,-3.198746,-7.791353,-5.061865,-3.13731,-0.012736,-0.064283,0.000185,-0.004059,0.003677,0.015533,0,34.2926,25.499,11.7569,29.2831,31.1227,111.9208,0,13.11115,59.998184,30.360506,0,NaN,0,22.977,0,1 / 1,535027,2020-01-19 16:41:49:876
-7.963516,-5.162521,-3.157242,-7.804017,-5.078282,-3.078759,-0.00862,0.012207,-0.009673,0.014038,-0.009094,-0.013763,0,34.1431,24.7986,12.9074,8.6133,31.1875,111.5297,0,8.20543,59.998184,30.360506,0,NaN,0,22.977,0,1 / 1,540027,2020-01-19 16:41:54:876
-7.951538,-5.143371,-3.157242,-7.815104,-5.043858,-3.107092,0.009493,-0.005332,0.007867,-0.003006,0.005814,0.001678,0,35.0922,25.4974,12.1063,35.9808,30.9622,111.6507,0,9.60541,59.998184,30.360506,0,NaN,0,22.977,0,1 / 1,545026,2020-01-19 16:41:59:875
-7.929992,-5.090698,-3.200333,-7.813456,-5.028386,-3.136178,0.026205,0.02955,-0.006861,0.005524,-0.002716,-0.000458,0,34.3933,23.8983,12.4069,35.9442,30.8483,111.8991,0,15.6481,59.998184,30.360506,0,NaN,0,22.977,0,1 / 1,550027,2020-01-19 16:42:04:876
-8.002212,-5.161728,-3.112549,-7.804023,-5.101374,-3.040324,-0.04785,0.03792,-0.013656,0.006592,-0.024719,-0.013596,0,34.993,26.4496,12.7075,12.0005,31.3454,111.2851,0,7.76913,59.998184,30.360506,0,NaN,0,22.977,0,1 / 1,555027,2020-01-19 16:42:09:876
-7.99823,-5.120636,-3.159637,-7.837255,-5.023389,-3.084374,-0.008047,0.000774,-0.015078,-0.00087,-0.002716,-0.002045,0,33.6426,24.1989,11.0565,43.4052,30.8134,111.4823,0,5.29656,59.998184,30.360506,0,NaN,0,22.977,0,1 / 1,560027,2020-01-19 16:42:14:876
-7.986252,-5.122619,-3.121734,-7.839144,-5.034627,-3.061164,-0.004019,0.003905,-0.004695,0.007294,-0.002533,-0.008087,0,34.4925,25.1984,11.4563,34.0355,30.8898,111.3305,0,11.97472,59.998184,30.360506,0,NaN,0,22.977,0,1 / 1,565027,2020-01-19 16:42:19:876
-7.969497,-5.076339,-3.15245,-7.819334,-5.033729,-3.112872,-0.00018,0.053942,0.020129,-0.01152,0.006882,0.00647,0,33.7433,23.9975,12.8067,14.7213,30.9251,111.7033,0,8.74385,59.998184,30.360506,0,NaN,0,22.977,0,1 / 1,570027,2020-01-19 16:42:24:876
-7.974289,-5.101867,-3.149261,-7.834716,-5.02029,-3.095849,0.009851,0.01417,0.005631,0.000381,0.005814,-0.00383,0,34.494,24.8993,12.4573,23.7664,30.7923,111.5612,0,5.75388,59.998184,30.360506,0,NaN,0,22.977,0,1 / 1,575026,2020-01-19 16:42:29:875
-7.992248,-5.111053,-3.193161,-7.829605,-5.016744,-3.114472,-0.004144,0.007247,-0.015641,0.004456,-0.002716,0.001144,0,33.9432,24.8489,10.7071,35.9017,30.7931,111.6684,0,6.06376,59.998184,30.360506,0,NaN,0,22.977,0,1 / 1,580027,2020-01-19 16:42:34:876
-7.975479,-5.115844,-3.148865,-7.832678,-5.023038,-3.096548,0.0014,-0.000332,0.004691,-0.00087,0.001022,0.00061,0,34.8938,24.6994,12.6572,18.3092,30.811,111.5707,0,8.31003,59.998184,30.360506,0,NaN,0,22.977,0,1 / 1,585027,2020-01-19 16:42:39:876
-7.98027,-5.120636,-3.139282,-7.836198,-5.022303,-3.088826,0.0022,-0.004586,0.0072,0.009781,-0.006973,-0.006836,0,34.642,25.148,12.6068,18.133,30.7412,111.586,0,16.98633,59.998184,30.360506,0,NaN,0,22.977,0,1 / 1,590027,2020-01-19 16:42:44:876
-7.98027,-5.139786,-3.15245,-7.823949,-5.046186,-3.080945,-0.009457,0.001123,-0.013673,-0.002472,0.00795,0.005936,0,35.0433,24.498,11.7065,46.7388,31.04,111.3979,0,13.70181,59.998184,30.360506,0,NaN,0,22.977,0,1 / 1,595027,2020-01-19 16:42:49:876
-7.985061,-5.096695,-3.212311,-7.834651,-5.000932,-3.129623,-0.003729,-0.006006,0.009245,-0.008331,0.0186,0.014999,0,33.992,24.2996,11.1069,43.9924,30.7217,111.6684,0,5.8595,59.998184,30.360506,0,NaN,0,22.977,0,1 / 1,600027,2020-01-19 16:42:54:876
-7.975479,-5.176895,-3.057876,-7.827646,-5.077145,-3.020088,-0.001358,-0.004744,0.018725,0.014038,-0.005905,-0.016434,0,34.642,24.9985,12.207,31.9844,31.1798,111.0978,0,17.77426,59.998184,30.360506,0,NaN,0,22.977,0,1 / 1,605026,2020-01-19 16:42:59:875
-8.067657,-5.093094,-2.902252,-7.921211,-5.004774,-2.894307,0.000725,0.004665,0.045829,0.003387,-0.007507,0.012863,0,35.8429,24.498,11.2076,54.2563,30.6868,110.0716,0,5.23334,59.998184,30.360506,0,NaN,0,22.977,0,1 / 1,610027,2020-01-19 16:43:04:876
-7.932388,-5.070358,-3.025558,-7.892311,-5.0078,-2.967111,-0.175547,0.026846,0.053398,-0.001938,-0.012299,-0.011642,0,34.6939,24.1989,10.8078,47.6542,30.7191,110.7427,0,18.29514,59.998184,30.360506,0,NaN,0,22.977,0,1 / 1,615026,2020-01-19 16:43:09:875
-7.907257,-5.125412,-3.347977,-7.787335,-4.988947,-3.261626,0.024403,-0.044003,-0.025901,0.012802,0.081985,0.013046,0,33.6929,24.649,13.6581,1.6856,30.5241,112.5113,0,6.38497,59.998184,30.360506,0,NaN,0,22.977,0,1 / 1,620027,2020-01-19 16:43:14:876
-8.044113,-4.977768,-3.127716,-7.883454,-4.929861,-3.117372,-0.018047,0.041275,0.04605,0.006592,-0.015839,0.007538,0,33.8425,24.6994,12.9578,7.1133,30.1792,111.5755,0,6.19067,59.998184,30.360506,0,NaN,0,22.977,0,1 / 1,625027,2020-01-19 16:43:19:876
-8.014587,-5.085113,-3.059479,-7.864189,-5.0135,-3.031458,-0.00507,0.021035,0.028,-0.015244,0.004745,0.011444,0,34.2941,25.3983,11.5082,19.0152,30.8951,111.054,0,11.78461,59.998184,30.360506,0,NaN,0,22.977,0,1 / 1,630033,2020-01-19 16:43:24:882
-8.011398,-5.044021,-3.17041,-7.880026,-4.939613,-3.110592,0.011086,-0.015109,-0.003584,0.002853,-0.001114,0.003281,0,34.4421,25.3006,13.0081,6.848,30.2451,111.5413,0,6.07354,59.998184,30.360506,0,NaN,0,22.977,0,1 / 1,635027,2020-01-19 16:43:29:876
-8.05809,-5.099075,-2.99443,-7.910306,-5.007886,-2.918648,0.010165,0.008805,-0.017505,0.00766,-0.003235,-0.014832,0,32.8918,24.0982,10.5072,20.9584,30.708,110.2524,0,3.79144,59.998184,30.360506,0,NaN,0,22.977,0,1 / 1,640027,2020-01-19 16:43:34:876
-8.250808,-4.887588,-2.634903,-8.083147,-4.912664,-2.588214,-0.024499,0.112085,-0.000849,-0.056793,-0.026672,-0.064194,0,36.4944,23.851,9.8068,35.1126,30.063,107.755,0,5.9334,59.998184,30.360506,0,NaN,0,22.977,0,1 / 1,645027,2020-01-19 16:43:39:876
-8.346985,-4.948242,-2.600983,-8.135546,-4.852294,-2.537424,-0.056079,-0.003287,-0.015103,0.009598,-0.028625,0.016586,0,35.8429,23.6984,10.2081,29.3049,29.7442,107.5148,0,5.09792,59.998184,30.360506,0,NaN,0,22.977,0,1 / 1,650027,2020-01-19 16:43:44:876
-8.386093,-4.842895,-2.595795,-8.156421,-4.77782,-2.610674,-0.070909,0.027924,0.065695,-0.013657,0.02446,0.010727,0,35.643,24.1989,10.0082,27.6407,29.1568,107.7486,0,4.31002,59.998184,30.360506,0,NaN,0,22.977,0,1 / 1,655026,2020-01-19 16:43:49:875
-8.275955,-4.91951,-2.638901,-8.118755,-4.841958,-2.609911,0.001667,0.030364,0.007723,0.013519,-0.011765,-0.013763,0,33.8928,23.349,9.9564,19.4404,29.5869,107.8209,0,6.57957,59.998184,30.360506,0,NaN,0,22.977,0,1 / 1,660027,2020-01-19 16:43:54:876
-8.283142,-4.902755,-2.664032,-8.125033,-4.830361,-2.611864,-0.008492,0.003603,0.011056,-0.001938,0.00795,0.003815,0,35.4935,24.498,10.1578,21.8729,29.509,107.8205,0,9.95345,59.998184,30.360506,0,NaN,0,22.977,0,1 / 1,665027,2020-01-19 16:43:59:876
-8.307083,-4.884399,-2.689972,-8.140161,-4.785668,-2.646797,-0.013885,-0.00876,0.006586,-0.00708,-0.016022,-0.00827,0,35.7437,23.5489,8.5571,41.8115,29.1495,108.0871,0,18.21503,59.998184,30.360506,0,NaN,0,22.977,0,1 / 1,670027,2020-01-19 16:44:04:876
-8.322647,-4.89917,-2.744247,-8.140095,-4.771292,-2.672829,-0.025517,-0.035831,-0.019855,0.002335,-4.6E-05,0.001678,0,35.4935,22.699,10.3561,30.6816,29.089,108.2022,0,4.22429,59.998184,30.360506,0,NaN,0,22.977,0,1 / 1,675026,2020-01-19 16:44:09:875
-8.299896,-5.012893,-2.67601,-8.109384,-4.85681,-2.611447,-0.025369,-0.057178,-0.011383,0.006058,-0.01123,-0.010574,0,34.7931,23.3978,11.0077,8.3356,29.6261,107.8722,0,3.98548,59.998184,30.360506,0,NaN,0,22.977,0,1 / 1,680027,2020-01-19 16:44:14:876
-8.301101,-4.868042,-2.692764,-8.144248,-4.776282,-2.651181,-0.007854,-0.004377,0.006921,-0.00087,0.004211,0.00061,0,35.994,23.4985,9.4574,51.5018,29.1592,108.0159,0,5.38666,59.998184,30.360506,0,NaN,0,22.977,0,1 / 1,685027,2020-01-19 16:44:19:876
-8.295913,-4.851684,-2.796524,-8.139102,-4.770298,-2.677623,-0.004275,0.008015,-0.068719,-0.018982,0.029251,-0.00827,0,35.8429,23.8983,9.5078,29.7588,29.0977,107.9958,0,4.47636,59.998184,30.360506,0,NaN,0,22.977,0,1 / 1,690027,2020-01-19 16:44:24:876
-8.31665,-4.851288,-2.672409,-8.157364,-4.762247,-2.636058,-0.006183,0.000341,0.013125,0.020966,-0.018158,-0.011642,0,35.4431,23.5489,9.9075,20.6178,29.0527,107.9083,0,5.56062,59.998184,30.360506,0,NaN,0,22.977,0,1 / 1,695026,2020-01-19 16:44:29:875
1.691116,3.813339,7.623444,2.559381,4.090331,8.537514,-0.897793,-0.324184,-1.012571,0.74411,-0.848709,0.34433,0,-17.6559,-25.351,-38.0936,131.8581,-20.3828,-11.1527,5,18.68022,59.998184,30.360506,0,NaN,0,22.977,0,1 / 1,700027,2020-01-19 16:44:34:876
