ACCELEROMETER_X,ACCELEROMETER_Y,ACCELEROMETER_Z,GRAVITY_X,GRAVITY_Y,GRAVITY_Z,LINEAR_ACCELERATION_X,LINEAR_ACCELERATION_Y,LINEAR_ACCELERATION_Z,GYROSCOPE_X,GYROSCOPE_Y,GYROSCOPE_Z,LIGHT,MAGNETIC_FIELD_X,MAGNETIC_FIELD_Y,MAGNETIC_FIELD_Z,ORIENTATION_Z_azimuth,ORIENTATION_X_pitch,ORIENTATION_Y_roll,PROXIMITY,SOUND_LEVEL,LOCATION_Latitude,LOCATION_Longitude,LOCATION_Altitude,LOCATION_Altitude-google,LOCATION_Speed,LOCATION_Accuracy,LOCATION_ORIENTATION,Satellites_in_range,Time,Date
1.375076,1.613068,10.195221,1.836837,1.465106,9.521023,0.589772,-0.903266,1.519626,0.496857,-0.197815,-0.043121,726,7.6386,-1.5961,-51.5854,285.609,-7.1751,-9.0367,5,66.40967,60.00989,30.371246,52,NaN,0,7.5850005,,14 / 31,18,2020-01-17 15:21:33:245
1.375076,1.613068,10.195221,1.836837,1.465106,9.521023,0.589772,-0.903266,1.519626,0.496857,-0.197815,-0.043121,726,7.6386,-1.5961,-51.5854,285.609,-7.1751,-9.0367,5,66.40967,60.00989,30.371246,52,NaN,0,7.5850005,,14 / 31,2518,2020-01-17 15:21:33:245
-2.599304,-13.59491,-3.065063,-0.457932,-9.550243,2.180262,-3.37199,-1.635769,-6.694938,1.430725,-0.063416,-0.447388,0,5.4337,19.1101,7.5729,262.4462,82.9355,79.9287,0,54.01729,60.009895,30.37118,40,NaN,0,7.5850005,,16 / 31,5018,2020-01-17 15:21:38:245
1.42775,-4.848892,-1.328064,-2.005167,-9.594614,-0.305107,1.110545,3.159302,-0.346438,2.200562,-1.933838,-0.881485,0,16.5833,17.7078,28.0716,177.5852,52.5756,163.0548,0,60.35167,60.009907,30.371141,39,NaN,0,9.101999,,17 / 31,10017,2020-01-17 15:21:43:244
-8.467499,-10.311264,14.118118,-2.128378,-8.364178,-4.656276,0.829479,-7.600792,-11.424341,-0.512665,0.783112,-0.016312,0,14.3616,18.5379,45.163,182.5414,51.695,161.3589,0,63.5318,60.009907,30.371084,40,NaN,7.956,7.5850005,259.7,18 / 31,15018,2020-01-17 15:21:48:245
3.136002,-0.997818,3.21373,-1.769451,-7.740337,-5.755573,4.253683,6.058347,10.871347,2.260391,0.000137,0.884537,0,12.3779,19.9265,41.2216,200.7527,56.3726,147.7259,0,55.23264,60.00992,30.370905,37,NaN,4.572,12.136,300.2,19 / 31,20018,2020-01-17 15:21:53:245
2.982773,-1.066055,5.363724,-2.411481,-7.66441,-5.622451,-0.229252,6.23371,8.512186,-2.186737,2.427353,2.268677,0,15.8325,23.4131,45.4636,211.8731,66.2157,143.6424,0,61.35878,60.009953,30.370754,36,NaN,3.42,15.170001,298.5,19 / 31,25018,2020-01-17 15:21:58:245
0.885452,-21.524506,-1.246674,-2.608155,-8.812,-3.422948,3.006762,-8.591829,0.840144,-2.977157,0.82431,1.5569,0,1.68,37.8098,11.4151,350.1721,75.8616,7.3847,0,64.83907,60.009964,30.370636,36,NaN,5.544,22.755001,279.1,16 / 31,30017,2020-01-17 15:22:03:244
-5.728531,-12.065018,7.953049,-0.183811,-9.53247,2.295351,-6.986687,-3.550944,-2.961032,-1.700973,0.181778,0.518448,0,1.7334,44.4107,12.7228,342.3707,80.2449,18.5414,0,62.18584,60.00996,30.370447,34,NaN,6.264,34.891,272.3,16 / 31,35017,2020-01-17 15:22:08:244
-3.008713,-11.987198,-5.723831,-0.420814,-9.529316,2.27716,-2.931431,1.014237,-3.869017,1.902817,-0.290146,-0.846863,0,10.6354,41.0095,24.2722,232.313,71.0397,129.026,0,69.66425,60.009995,30.370035,38,NaN,11.52,34.891,280.4,14 / 31,40017,2020-01-17 15:22:13:244
3.234177,-5.264282,0.036621,-2.587039,-8.583215,-3.975682,7.231486,3.156291,2.9165,2.99614,-3.319214,-1.792648,0,7.283,33.0597,42.2684,215.3279,57.7742,154.1415,0,61.93288,60.01,30.369795,43,NaN,4.536,18.203999,281.4,14 / 31,45018,2020-01-17 15:22:18:245
-3.832321,-12.911362,-9.979523,-2.37201,-8.568631,-4.137936,-0.83007,-3.430582,-9.090532,1.540283,-0.062881,0.277344,0,9.7336,28.9124,47.8683,203.7405,51.1673,158.1969,0,62.9942,60.01001,30.369633,42,NaN,8.892,15.170001,285.9,14 / 31,50018,2020-01-17 15:22:23:245
-1.465652,-12.682709,-4.660797,-1.770686,-9.437881,-1.990346,3.394355,-7.466205,2.163423,-3.198379,0.439209,0.749252,0,4.332,38.2599,8.7677,330.9953,79.0818,25.4463,0,68.60305,60.01004,30.369482,42,NaN,4.104,9.101999,299.2,15 / 31,55018,2020-01-17 15:22:28:245
-5.359817,-11.347946,1.330689,-2.44633,-8.949418,-3.177068,-4.473253,-2.913221,9.978747,2.584412,-2.430252,-0.967056,0,35.1807,33.9111,15.1154,121.0321,62.0376,145.8742,0,58.63028,60.01004,30.369438,45,NaN,3.06,10.6189995,254.2,16 / 31,60018,2020-01-17 15:22:33:245
-1.459656,-9.909027,-0.352432,-1.709763,-9.656009,-0.092731,0.280747,0.062423,-0.244308,-0.011108,-0.562668,0.056656,0,11.8317,34.3094,-4.8309,125.8562,80.3165,100.0378,0,63.18418,60.01004,30.369513,45,NaN,1.224,18.203999,114.1,19 / 31,65018,2020-01-17 15:22:38:245
-2.016312,-10.038315,-2.365951,-1.567432,-9.680537,-0.027432,-0.453617,-0.879086,-0.223697,-0.333878,0.999374,0.084885,0,15.6815,33.8104,-13.0814,151.9011,81.0735,71.7745,0,43.26764,60.010082,30.369549,42,NaN,1.224,18.203999,348.4,19 / 31,70019,2020-01-17 15:22:43:246
-1.266937,-10.008392,0.422089,-2.004644,-9.599246,0.079053,0.439013,-0.066107,0.084977,0.16449,0.11377,0.158386,0,6.8329,34.8602,-3.0304,92.4478,79.0897,92.0546,0,48.71202,60.010117,30.369616,45,NaN,0.54,18.203999,95.6,21 / 31,75018,2020-01-17 15:22:48:245
-3.013504,-9.418228,-0.565521,-2.568131,-9.45672,-0.381523,-0.506046,0.281336,-0.079275,-0.080521,-0.501236,0.061264,0,8.6319,39.2105,-0.2808,69.6393,76.2341,103.5294,0,49.98989,60.01012,30.369663,45,NaN,3.672,18.203999,141.7,21 / 31,80018,2020-01-17 15:22:53:245
-2.896179,-9.411041,-0.6996,-1.987234,-9.474241,-1.568454,0.273183,-0.130721,0.707945,-0.083359,0.863373,0.044937,0,-1.9684,41.8106,12.3688,298.3598,76.4043,117.2975,0,53.02294,60.0101,30.369661,49,NaN,1.692,16.687,196.9,21 / 31,85018,2020-01-17 15:22:58:245
-2.177917,-9.789322,0.260483,-2.116231,-9.575027,-0.104081,0.110428,0.07973,0.240846,-0.032593,-0.497513,0.03215,0,19.4824,35.7101,-11.0321,126.3925,77.6804,96.2879,0,58.63306,60.010128,30.369623,48,NaN,0,16.687,,21 / 31,90018,2020-01-17 15:23:03:245
-1.713455,-9.867142,-0.376373,-1.709057,-9.649688,-0.364728,0.002171,0.007482,0.010759,-0.038803,-0.069092,-0.009033,0,13.53,40.3107,-6.0303,119.762,79.5574,101.8908,0,40.34586,60.010147,30.369617,46,NaN,0,16.687,,21 / 31,95018,2020-01-17 15:23:08:245
-5.071319,-13.242966,-5.133651,-3.025506,-9.141721,-1.856245,7.907799,3.764064,7.206567,1.399841,-2.604248,-1.237289,0,24.6338,42.1585,19.2169,95.213,57.3623,152.659,0,69.66622,60.01016,30.3696,47,NaN,0,15.170001,,21 / 31,100018,2020-01-17 15:23:13:245
-8.467499,-15.963974,6.259156,-3.409735,-9.009066,-1.838705,10.711801,6.713393,3.451891,0.943909,-1.906509,-0.575928,0,28.6316,36.7584,17.5629,132.7158,60.5849,140.3626,0,69.24935,60.010174,30.3696,45,NaN,0,15.170001,,21 / 31,105018,2020-01-17 15:23:18:245
-5.17427,-9.785736,-6.488769,-2.73049,-8.502077,-4.05333,0.586855,-8.887778,-14.421909,2.743485,0.066727,0.299011,0,26.4816,32.811,17.1173,92.137,50.5821,149.7062,0,66.5727,60.010178,30.369602,45,NaN,0,16.687,,22 / 31,110018,2020-01-17 15:23:23:245
-10.779099,-18.99144,-26.315157,-2.990485,-8.65433,-3.511402,-0.7812,-12.935566,-17.095638,-0.427795,0.199524,0.005707,0,25.0809,25.3601,14.8651,109.2098,51.4689,148.3637,0,60.39749,60.010403,30.369656,48,NaN,3.348,16.687,357.5,22 / 31,115017,2020-01-17 15:23:28:244
3.024674,-0.344192,4.244431,-2.284724,-7.883249,-5.367009,-0.444519,5.835241,7.700071,-1.298126,2.767883,1.48233,0,11.5646,29.8111,17.6025,179.935,59.8783,146.3209,0,53.69878,60.010445,30.36964,44,NaN,4.788,19.720999,20.7,21 / 30,120017,2020-01-17 15:23:33:244
-1.424942,-1.177383,3.943955,-3.310696,-7.925374,-4.732665,-2.150921,2.75457,5.631729,-0.586533,2.567429,0.645218,0,6.9641,35.463,4.9454,36.0366,74.2047,131.8483,0,61.64226,60.01053,30.369719,46,NaN,4.464,19.720999,351,19 / 31,125018,2020-01-17 15:23:38:245
-2.420929,-0.535736,4.766373,-2.711735,-8.733331,-3.542005,2.35021,-4.499773,1.055959,-2.775284,0.92923,1.723801,0,1.0284,32.9102,-6.5353,55.3728,80.681,94.2518,0,57.95836,60.010597,30.369698,40,NaN,5.436,18.203999,12.9,19 / 31,130017,2020-01-17 15:23:43:244
-5.43164,-9.211121,-0.849228,-2.862402,-8.537206,-3.884992,1.78308,-3.582859,1.759122,-1.363098,2.65213,2.035034,0,4.2297,38.707,-5.4855,313.2299,77.321,4.0604,0,70.38552,60.010666,30.369621,41,NaN,3.348,18.203999,10.2,19 / 31,135017,2020-01-17 15:23:48:244
-2.501144,-0.999008,2.910858,-2.824254,-7.735725,-5.324708,-1.80483,-0.954653,3.107376,-1.396133,2.687454,1.251877,0,7.0786,36.4105,2.417,275.7552,82.6686,49.4123,0,65.25806,60.010746,30.369532,40,NaN,4.068,16.687,349.5,18 / 31,140018,2020-01-17 15:23:53:245
0.936935,-0.669815,5.549271,-2.869875,-7.68503,-5.373502,-0.786237,3.535463,7.002077,-0.098999,3.001526,0.902481,0,9.1766,37.9608,5.5634,218.9708,80.1417,107.5,0,60.95015,60.01082,30.369541,36,NaN,3.708,16.687,32,18 / 31,145018,2020-01-17 15:23:58:245
1.721039,-0.784729,4.884888,-3.082337,-8.031853,-4.707326,2.005695,7.444335,10.121002,-0.972504,2.868012,0.629242,0,16.7297,34.9609,21.1655,29.7799,74.4619,131.318,0,59.2172,60.01089,30.369558,34,NaN,4.032,15.170001,11.9,19 / 31,150018,2020-01-17 15:24:03:245
-0.185944,-2.087173,1.288788,-2.495065,-7.656306,-5.596965,5.632038,8.157851,10.339314,1.53833,1.481934,0.529984,0,13.6307,37.0605,17.662,172.702,65.6451,143.897,0,60.12837,60.010986,30.369526,35,NaN,6.3,15.170001,4.8,20 / 31,155019,2020-01-17 15:24:08:246
0.769333,-0.722488,4.670609,-2.806572,-7.456033,-5.718487,0.290932,4.898563,8.116564,-0.212265,2.27768,0.462173,0,13.4323,28.4103,24.7208,168.5275,49.491,153.8587,0,53.44965,60.011093,30.369509,36,NaN,6.444,15.170001,357.1,22 / 31,160017,2020-01-17 15:24:13:244
3.156357,-0.837402,5.551667,-2.518625,-8.171306,-4.801735,2.586374,7.421232,10.002886,1.702911,1.337051,0.593185,0,17.6819,32.9086,24.5728,148.8789,56.4332,152.3219,0,60.32418,60.011158,30.369469,32,NaN,6.156,15.170001,5.8,22 / 31,165018,2020-01-17 15:24:18:245
3.432892,-0.1371,5.882065,-2.458709,-7.716765,-5.529618,5.18408,7.830748,10.293137,1.305924,1.785172,0.569763,0,11.6318,30.0598,19.7754,84.0491,51.8959,156.028,0,58.40816,60.011265,30.369446,34,NaN,6.3,16.687,0.8,22 / 31,170019,2020-01-17 15:24:23:246
-4.549377,-18.537733,-20.043549,-2.527654,-8.146486,-4.83902,-0.88152,-0.65937,-7.360084,1.928742,-0.133194,0.454895,0,14.9826,31.6101,21.6736,143.1781,56.1718,152.4198,0,51.04821,60.01133,30.369394,34,NaN,3.96,16.687,349.2,22 / 31,175017,2020-01-17 15:24:28:244
1.640823,-19.226074,-14.991776,-2.699148,-8.68896,-3.658818,5.338334,7.91557,8.733196,2.219208,-0.341278,0.472992,0,14.032,36.6592,17.9199,169.2039,62.3782,143.5834,0,60.08194,60.011433,30.369337,34,NaN,6.804,18.203999,351,21 / 31,180017,2020-01-17 15:24:33:244
1.085373,-11.495193,-6.014724,-2.1923,-8.62171,-4.126781,-0.635357,-11.708855,-15.778906,-0.926514,0.617828,0.093414,0,17.7826,40.7089,26.4694,155.3899,61.5424,152.0211,0,61.27869,60.011578,30.369314,35,NaN,8.352,18.203999,356.4,20 / 31,185018,2020-01-17 15:24:38:245
-0.938919,-5.604263,-4.247802,-2.316267,-8.699295,-3.889415,1.513472,-7.921474,-7.179663,-1.075134,0.257401,0.228867,0,12.4313,37.5107,14.6667,75.8954,62.5087,149.2249,0,60.15579,60.011696,30.369318,37,NaN,9.756,18.203999,351.3,20 / 31,190017,2020-01-17 15:24:43:244
-1.263336,-14.74173,-12.699326,-2.748674,-8.529993,-3.981756,2.43158,-12.592463,-13.321629,-0.273346,0.87207,-0.194565,0,17.7826,35.7605,19.4687,139.6665,60.4374,145.382,0,60.11457,60.011806,30.369242,40,NaN,5.904,18.203999,350.9,19 / 31,195018,2020-01-17 15:24:48:245
-0.157211,-17.879333,-9.998672,-2.266098,-8.449136,-4.432525,-0.741726,-0.188095,-6.437472,2.157944,-0.250549,0.48259,0,25.6821,28.6087,11.0168,102.174,59.4936,152.9219,0,58.41597,60.011898,30.369251,41,NaN,9.18,18.203999,12.5,20 / 31,200018,2020-01-17 15:24:53:245
2.750534,-28.792097,-20.272186,-2.225268,-8.509703,-4.336303,-0.411708,1.772063,-3.982339,2.50737,-0.334167,0.497314,0,17.4835,33.8608,17.1158,111.9098,60.198,152.8344,0,61.38051,60.011913,30.369345,41,NaN,3.924,16.687,22.1,21 / 31,205018,2020-01-17 15:24:58:245
0.662796,-27.672806,-19.258257,-2.475838,-8.045793,-5.030487,-0.601921,3.824937,-3.004051,2.892975,-0.350327,0.534256,0,19.3802,34.7092,20.4727,100.9898,55.1291,153.7951,0,63.47449,60.011974,30.369305,37,NaN,6.12,16.687,347,21 / 31,210017,2020-01-17 15:25:03:244
0.966858,-25.67485,-17.266266,-2.872482,-8.508342,-3.940477,2.290397,-12.541488,-12.529672,-0.212799,1.065582,-0.247467,0,25.1846,41.0599,22.4182,137.1738,60.182,143.9092,0,59.91234,60.01207,30.369244,39,NaN,4.932,16.687,354.7,23 / 31,215018,2020-01-17 15:25:08:245
-5.806335,-17.518997,-26.062576,-2.419095,-8.663983,-3.905607,4.421602,7.816646,7.646944,1.162628,-0.375366,-0.049347,0,19.9341,36.4105,18.5669,133.7958,62.0651,148.2263,0,58.82662,60.01216,30.369232,43,NaN,6.192,16.687,14.3,24 / 31,220018,2020-01-17 15:25:13:245
-9.154633,-9.110565,-17.08551,-2.628841,-8.29222,-4.527545,4.854124,6.725845,7.844404,1.254791,1.228394,0.46785,0,15.8325,32.0587,20.7733,146.9825,57.7332,149.8592,0,69.42064,60.01223,30.369242,47,NaN,3.456,16.687,1.3,24 / 31,225018,2020-01-17 15:25:18:245
4.15474,-0.665024,4.267182,-2.422553,-8.22518,-4.758993,2.897189,5.10285,9.506712,-0.742935,1.927033,0.705048,0,24.6826,37.1109,31.7169,153.3754,55.7447,150.7674,0,64.03873,60.01235,30.369205,49,NaN,6.048,16.687,353.2,24 / 31,230018,2020-01-17 15:25:23:245
2.426132,-2.314621,4.444351,-2.90726,-8.069457,-4.754166,2.487225,6.562958,10.09585,-1.770569,2.360413,2.096634,0,13.0829,30.5618,22.467,186.4736,55.3717,148.5534,0,60.8606,60.012432,30.369177,48,NaN,6.444,16.687,357,23 / 31,235017,2020-01-17 15:25:28:244
-3.124832,-2.235611,1.737701,-3.128565,-7.949219,-4.815848,2.663626,7.466273,10.647951,-1.674698,2.475281,2.382126,0,21.6827,40.0589,28.717,156.1804,54.1541,146.9907,0,60.22545,60.012505,30.369183,46,NaN,3.6,15.170001,350.9,23 / 31,240018,2020-01-17 15:25:33:245
-5.933227,-7.902694,1.193024,-2.722641,-8.09765,-4.815151,2.231478,-4.983126,0.891525,-1.867508,2.541153,1.932938,0,15.4785,40.5106,19.3131,47.6857,55.6626,150.5148,0,53.2628,60.012554,30.369158,45,NaN,4.5,16.687,333,21 / 31,245018,2020-01-17 15:25:38:245
-1.758942,-0.557281,4.268372,-2.668544,-8.675107,-3.71373,1.138775,-4.893911,1.135534,-2.65509,1.475357,1.884476,0,20.4285,45.6619,19.165,116.0761,62.2041,144.3004,0,53.26261,60.01263,30.369167,45,NaN,5.94,15.170001,5.7,20 / 31,250019,2020-01-17 15:25:43:246
-0.870682,-11.825592,-2.205551,-2.263899,-8.961269,-3.277315,4.001604,-6.485601,1.920847,-2.647812,2.257965,1.229874,0,-9.0683,18.7592,5.7205,67.2932,76.0362,-3.6129,0,64.4453,60.01272,30.369219,45,NaN,6.012,16.687,6.2,20 / 31,255017,2020-01-17 15:25:48:244
1.699493,-21.957855,1.756851,-2.167571,-9.269864,-2.354066,4.010444,-10.495943,0.664163,-2.745987,2.18483,1.611588,0,4.3793,37.6617,-4.0863,259.5376,82.04,32.9888,0,62.608,60.01282,30.369162,45,NaN,5.76,16.687,335.6,20 / 31,260018,2020-01-17 15:25:53:245
-5.932037,-14.782425,-0.482925,-0.510359,-9.709076,1.282095,-7.388278,-2.103954,-3.987148,-0.347549,-0.225159,-0.117691,0,-25.2197,32.4097,18.0679,28.7414,81.9108,21.7059,0,66.6861,60.012913,30.36919,41,NaN,7.848,16.687,6.6,20 / 31,265019,2020-01-17 15:25:58:246
-9.633469,-12.438507,1.90889,-0.450067,-9.692625,1.421566,-8.234578,-3.031319,-4.347009,-1.293335,0.122467,0.486313,0,6.6864,32.2632,-10.9268,211.1334,82.4112,72.3363,0,66.14617,60.013004,30.369232,40,NaN,6.12,16.687,1.4,20 / 31,270018,2020-01-17 15:26:03:245
-8.996613,-13.533859,-1.35321,-0.134779,-9.478961,2.510281,-7.211744,-2.837856,-6.570711,2.031891,-0.849762,-0.985168,0,0.9842,24.6582,-7.7286,202.6562,75.1466,3.0733,0,67.08261,60.013058,30.369211,40,NaN,5.868,18.203999,346,20 / 31,275018,2020-01-17 15:26:08:245
-7.635513,-12.82756,-1.286179,-0.333636,-9.559535,2.162032,-4.038657,-0.730978,-5.89335,1.752976,-1.3199,-1.117447,0,3.2852,26.9119,-4.2313,306.1991,77.1103,8.7725,0,62.39867,60.013123,30.369165,40,NaN,6.156,19.720999,336.7,20 / 30,280018,2020-01-17 15:26:13:245
2.275299,-5.976562,-2.028381,-1.367534,-9.709848,-0.138093,-4.126437,-3.317676,-1.103747,2.438645,-1.076477,-1.123123,0,11.3861,32.2586,7.6294,223.8025,81.9429,95.7662,0,60.89806,60.013195,30.369165,37,NaN,4.392,24.272,323.3,19 / 31,285018,2020-01-17 15:26:18:245
-6.783172,-12.768906,12.007629,-2.920873,-8.286855,-4.355102,3.714786,0.340047,8.434123,2.081955,-3.338394,-1.903244,0,21.7865,30.6564,17.0197,122.9674,57.6745,146.1511,0,62.84162,60.013256,30.369192,35,NaN,7.596,24.272,2.5,18 / 31,290018,2020-01-17 15:26:23:245
0.801666,-13.855881,-10.178238,-2.533233,-8.750353,-3.631038,-1.365913,-1.053487,-7.533559,-1.074951,0.939178,0.168686,0,21.8323,31.8085,22.9706,143.5007,65.4788,146.8551,0,61.13971,60.013344,30.369316,36,NaN,8.172,28.823,11,18 / 31,295018,2020-01-17 15:26:28:245
-7.557693,-8.519196,-17.253098,-2.069474,-8.2923,-4.808889,4.486429,8.202397,9.228739,1.878494,-0.309311,0.400558,0,19.8822,31.0089,22.6456,130.7658,57.7341,156.7157,0,65.94327,60.01344,30.369394,40,NaN,6.192,30.340002,22.3,18 / 31,300018,2020-01-17 15:26:33:245
2.536255,-0.020981,4.191757,-2.525953,-7.889866,-5.247854,0.887795,6.294773,8.094195,-1.286758,2.414566,1.049133,0,19.7449,30.5359,22.9813,123.0822,53.5661,154.2971,0,62.17703,60.01356,30.369394,39,NaN,8.424,30.340002,7,18 / 31,305018,2020-01-17 15:26:38:245
2.821167,-0.516586,3.966705,-2.525026,-8.0361,-5.021526,0.853347,5.530675,7.003331,0.219528,2.411728,0.23349,0,19.6182,32.4036,21.8597,169.622,60.4916,141.2804,0,58.29772,60.013664,30.369326,43,NaN,6.588,28.823,353,18 / 31,310018,2020-01-17 15:26:43:245
-2.40657,-1.080414,3.425614,-3.212341,-8.299736,-4.118936,0.771501,6.526939,8.339871,-1.93515,2.643952,2.577957,0,21.6278,33.5602,18.6676,136.752,57.8155,142.0495,0,54.35773,60.01371,30.369402,38,NaN,4.932,31.856998,15,18 / 31,315018,2020-01-17 15:26:48:245
1.208679,-0.508194,4.623917,-2.866217,-7.992341,-4.9069,3.324177,8.009774,10.510198,-0.233215,2.287796,0.398422,0,16.7816,31.7612,22.0169,137.6239,54.5866,149.71,0,58.21816,60.013805,30.36937,39,NaN,5.148,30.340002,359.3,17 / 31,320018,2020-01-17 15:26:53:245
1.950882,-1.151047,5.700104,-3.357219,-8.012494,-4.54966,1.22679,-3.499504,0.210157,-2.524246,0.652969,2.007507,0,17.2287,36.5616,16.5146,61.9583,54.7903,143.5762,0,61.12715,60.01388,30.3693,40,NaN,6.3,22.755001,1.2,17 / 31,325018,2020-01-17 15:26:58:245
-1.046661,-1.766357,3.681793,-3.124143,-7.971315,-4.782076,-0.964105,-1.870946,1.40458,-1.428436,2.7883,1.598618,0,13.6765,32.8598,17.0166,188.916,72.2932,136.0826,0,67.1913,60.013958,30.36916,37,NaN,5.256,18.203999,357.9,19 / 31,330019,2020-01-17 15:27:03:246
1.949677,-1.771149,5.087189,-2.68534,-8.670075,-3.713372,-1.395625,3.023559,5.778926,-1.45578,2.535294,2.6875,0,16.4291,31.7108,23.2162,182.99,62.1412,144.1273,0,67.48621,60.014023,30.36908,34,NaN,4.356,19.720999,15.1,19 / 31,335017,2020-01-17 15:27:08:244
3.823151,-0.040131,4.866928,-3.329153,-8.003489,-4.585988,2.555135,7.690027,9.481985,-0.722702,2.552353,0.536377,0,18.5776,30.2094,18.4662,127.3294,54.6991,144.0226,0,61.93328,60.014095,30.36912,30,NaN,6.084,25.789,23,20 / 31,340018,2020-01-17 15:27:13:245
-1.25975,-5.543213,1.398926,-3.391306,-7.828616,-4.835514,-1.410694,-1.456326,2.419764,-1.286941,2.424515,1.83281,0,22.0291,30.3619,17.3157,110.7586,52.9678,144.9567,0,59.90738,60.01416,30.369196,30,NaN,5.256,27.306,15.6,20 / 31,345018,2020-01-17 15:27:18:245
-2.926117,-6.085495,-0.209976,-3.352311,-7.581012,-5.240291,-1.762579,-0.630279,2.809481,-1.001617,1.720551,1.510025,0,35.6796,17.5125,28.8666,160.3591,65.7638,143.7705,0,61.48581,60.01424,30.369228,31,NaN,3.384,28.823,29.9,19 / 31,350017,2020-01-17 15:27:23:244
5.083695,-19.641464,-1.798538,-1.808326,-9.516256,-1.530106,6.528927,-9.604016,2.120557,-2.265198,3.038818,1.624725,0,13.2828,29.2114,5.7617,149.1339,76.0219,130.2361,0,59.20114,60.014244,30.369247,34,NaN,2.412,33.374,118.2,18 / 31,355018,2020-01-17 15:27:28:245
-3.875412,-13.660751,5.885666,-0.829217,-9.663731,1.447449,-0.940847,-3.822945,3.746197,-2.878616,1.42955,1.657044,0,3.0807,24.8093,-7.6828,161.2966,80.2062,29.8076,0,65.94196,60.014324,30.369337,32,NaN,5.436,28.823,39.4,17 / 31,360018,2020-01-17 15:27:33:245
0.782501,-10.587784,-4.509964,-2.43928,-9.00084,-3.034006,-2.353415,-0.460201,-1.664779,0.945862,0.589767,-0.242859,0,22.8317,28.9093,8.9706,123.5681,66.6109,141.2014,0,44.62062,60.014393,30.369314,35,NaN,2.736,28.823,7.7,17 / 31,365017,2020-01-17 15:27:38:244
-1.311218,-8.57547,-0.062729,-1.325365,-9.687429,-0.753333,-2.845995,-1.650892,0.732608,1.028595,1.373093,0.127502,0,31.3324,13.9603,8.1207,163.5642,81.0568,119.6137,0,66.09922,60.014404,30.369267,37,NaN,1.872,40.959,268.7,17 / 31,370018,2020-01-17 15:27:43:245
-0.841965,-9.952133,0.286819,-1.644959,-9.666602,0.145944,0.690004,-0.382915,-1.60353,0.356583,-0.175095,-0.076141,0,30.3833,17.8604,0.618,187.8844,80.3053,84.9299,0,43.01107,60.014397,30.369236,37,NaN,1.044,66.748,261.7,17 / 31,375018,2020-01-17 15:27:48:245
0.258179,-12.724609,4.779541,-1.636633,-9.635061,-0.81081,-1.997503,-0.321092,-3.45143,-2.868683,-0.209351,0.692444,0,25.1816,24.1608,11.3678,264.1027,79.3619,39.1968,0,54.39054,60.014397,30.369236,37,NaN,1.044,66.748,261.7,16 / 31,380018,2020-01-17 15:27:53:245
-1.79007,-10.069443,-0.996475,-1.481102,-9.693974,0.059872,-0.56161,0.15137,-0.761174,-0.278656,-0.275223,-0.005127,0,17.482,26.0117,20.369,244.47,81.0802,83.4833,0,49.3739,60.014397,30.369236,37,NaN,1.044,66.748,261.7,16 / 31,385018,2020-01-17 15:27:58:245
-1.93251,-9.774963,0.197037,-1.955807,-9.607632,0.196491,-0.075299,0.011647,-0.112198,-0.046249,-0.144913,-0.010986,0,17.6819,25.56,19.7205,244.4435,78.4372,84.263,0,29.30269,60.014397,30.369236,37,NaN,1.044,66.748,261.7,14 / 31,390017,2020-01-17 15:28:03:244
-1.651199,-9.867142,-0.230331,-1.309514,-9.710463,-0.403079,-0.295025,0.09799,0.123105,-0.057617,0.140762,0.054535,0,4.2831,27.8107,13.5193,252.0576,81.9686,107.1088,0,39.36313,60.014397,30.369236,37,NaN,1.044,66.748,261.7,10 / 31,395018,2020-01-17 15:28:08:245
0.671173,-10.284927,-1.223923,-1.230199,-9.683641,-0.940264,0.078068,-0.176413,0.911346,-0.366196,-1.418426,-0.151062,0,4.3823,27.1606,10.3668,243.4216,81.945,113.4653,0,44.47023,60.014397,30.369236,37,NaN,1.044,66.748,261.7,8 / 30,400018,2020-01-17 15:28:13:245
-3.048218,-9.442169,-0.893524,-2.049762,-9.560604,-0.750799,-0.571757,0.289064,0.153368,0.56662,-0.856506,-0.179474,0,27.2827,22.4075,22.3694,180.0586,73.4349,129.128,0,55.84981,60.014397,30.369236,37,NaN,1.044,66.748,261.7,6 / 31,405018,2020-01-17 15:28:18:245
-1.189117,-9.930588,-0.247086,-1.348654,-9.713082,-0.086941,0.445575,-0.105125,-0.11518,-0.159882,-0.297241,-0.059814,0,10.2829,25.6607,19.8685,248.5851,82.0789,93.6885,0,40.80939,60.014397,30.369236,37,NaN,1.044,66.748,261.7,6 / 31,410018,2020-01-17 15:28:23:245
-1.401001,-9.915024,-0.12738,-1.470294,-9.694052,-0.184311,0.087003,-0.037361,0.003091,-0.0159,0.02092,0.012985,0,8.9325,25.1099,19.1193,247.3872,81.3092,97.1451,0,24.27625,60.014397,30.369236,37,NaN,1.044,66.748,261.7,5 / 31,415018,2020-01-17 15:28:28:245
-1.386642,-9.743835,-1.693191,-1.27203,-9.565527,-1.747288,-0.124146,0.033442,0.04758,-0.097916,-0.015839,0.0112,0,4.2328,24.1608,21.7209,216.2308,77.9046,141.7739,0,51.67079,60.014397,30.369236,37,NaN,1.044,66.748,261.7,5 / 31,420018,2020-01-17 15:28:33:245
-1.463257,-9.870728,-0.765427,-1.412137,-9.67825,-0.712561,0.058005,0.015668,0.024567,-0.00737,0.005112,0.02417,0,9.1339,25.4105,22.02,228.5307,80.8865,116.8039,0,28.46121,60.014397,30.369236,37,NaN,1.044,66.748,261.7,4 / 31,425018,2020-01-17 15:28:38:245
-1.701477,-9.903046,-0.241104,-1.681225,-9.655721,-0.333052,0.003622,0.028039,-0.04628,-0.016602,-0.02507,0.003036,0,7.5333,24.9588,17.7689,247.1011,79.9348,101.2053,0,34.18331,60.014397,30.369236,37,NaN,1.044,66.748,261.7,4 / 31,430018,2020-01-17 15:28:43:245
-1.551834,-9.917419,-0.188431,-1.292466,-9.720753,0.083034,-0.248677,-0.008797,-0.274805,-0.054779,-0.258713,-0.052704,0,7.9819,25.9613,18.4189,259.7651,82.411,86.3241,0,36.87187,60.014397,30.369236,37,NaN,1.044,66.748,261.7,3 / 30,435018,2020-01-17 15:28:48:245
-1.354324,-9.923401,0.021057,-1.441317,-9.699088,-0.143902,0.142851,-0.012853,0.075451,-0.002228,0.066895,0.005173,0,9.3323,25.1602,20.4681,249.7649,81.4373,95.4713,0,28.93642,60.014812,30.368862,0,NaN,0,500,0,3 / 31,440017,2020-01-17 15:28:53:244
-1.737396,-9.843185,-0.201599,-1.592115,-9.673581,-0.239542,-0.110508,0.04488,0.03765,-0.040222,0.010971,0.005524,0,9.4345,25.2609,19.22,248.8088,80.7715,96.4576,0,27.70403,60.014812,30.368862,0,NaN,0,500,0,3 / 31,445018,2020-01-17 15:28:58:245
-1.385437,-9.99762,-0.2435,-1.443045,-9.696383,-0.261097,0.068485,-0.002258,0.029158,-0.000275,-0.027191,-0.008499,0,9.4315,25.1602,19.22,243.9306,81.3998,100.2559,0,38.15956,60.014812,30.368862,0,NaN,0,500,0,4 / 31,450017,2020-01-17 15:29:03:244
-1.700287,-9.833618,-0.300964,-1.495827,-9.690246,-0.17895,-0.147738,0.041443,-0.027296,0.021561,-0.009796,-0.019333,0,9.0332,25.061,19.2673,247.918,81.1632,96.822,0,30.81114,60.014812,30.368862,0,NaN,0,500,0,4 / 31,455018,2020-01-17 15:29:08:245
-1.769714,-9.695953,-3.15245,-1.561309,-9.260031,-2.825692,-0.040889,-0.340754,-0.008199,-0.437042,0.519821,0.361862,0,9.7824,21.5607,28.3188,195.8131,74.4245,148.1981,0,54.10883,60.014812,30.368862,0,NaN,0,500,0,4 / 31,460018,2020-01-17 15:29:13:245
-1.636841,-9.940155,-0.196808,-1.492278,-9.692149,-0.075698,0.020788,0.016727,-0.042096,0.012512,-0.034119,-0.009384,0,4.4327,27.6093,9.5184,268.462,81.1318,93.6763,0,42.73816,60.014812,30.368862,0,NaN,0,500,0,4 / 31,465018,2020-01-17 15:29:18:245
-2.747742,-8.389908,-1.506439,-2.627622,-9.074081,-2.631924,-1.654403,-3.108491,0.016309,-1.347473,0.787369,1.159912,0,12.529,28.2578,9.2163,143.0227,67.7135,135.0469,0,48.02835,60.014812,30.368862,0,NaN,0,500,0,3 / 31,470018,2020-01-17 15:29:23:245
-1.184326,-9.3871,0.837479,-2.130287,-9.538737,-0.802959,-0.341376,-0.143985,0.130628,1.58519,-1.728607,-0.92836,0,10.7834,27.1606,6.7719,203.487,76.5764,110.6527,0,63.21654,60.014812,30.368862,0,NaN,0,500,0,3 / 31,475018,2020-01-17 15:29:28:245
-9.692123,-16.159103,1.71376,-1.028871,-9.748776,0.270496,-7.412573,-3.812518,-2.812373,-2.861572,1.002914,1.205902,0,-1.9684,18.5577,-7.4814,131.2697,75.4368,1.7037,0,66.60805,60.015263,30.368671,0,NaN,0,500,0,4 / 30,480017,2020-01-17 15:29:33:244
1.601318,-16.603226,-3.768967,-2.802335,-9.059749,-2.497654,4.163035,-9.440883,0.702427,-3.014618,-0.092361,0.927155,0,8.4793,28.4592,-7.0358,154.1974,80.5655,63.4517,0,62.18938,60.01456,30.368282,48,NaN,15.228,51.578,70.8,7 / 31,485018,2020-01-17 15:29:38:245
-3.637192,-1.789093,2.624756,-2.417578,-9.186792,-2.434862,5.354219,-10.963425,0.943466,-3.33313,-0.380676,0.781738,0,15.2817,30.2597,5.5634,117.8666,69.5196,135.2041,0,63.15277,60.014637,30.368574,49,NaN,6.552,28.823,54.8,12 / 31,490018,2020-01-17 15:29:43:245
-1.729004,-0.769165,3.078461,-2.864809,-8.652828,-3.618261,1.916774,-4.402405,1.378564,-2.790741,1.25325,1.883057,0,26.4282,30.5115,5.8151,102.8567,61.9263,141.6291,0,67.18558,60.014683,30.3685,55,NaN,3.816,24.272,328.9,14 / 31,495017,2020-01-17 15:29:48:244
0.351547,-14.460403,-3.783325,-2.56066,-9.095476,-2.624067,3.754333,-10.43972,0.417701,-3.297088,-0.199051,1.040604,0,6.1279,33.2596,-2.7863,200.2995,82.1572,56.7922,0,59.57392,60.01472,30.368422,52,NaN,5.652,22.755001,350.5,15 / 31,500019,2020-01-17 15:29:53:246
-2.769287,-11.617294,-1.378357,-3.407852,-8.15632,-4.246336,-0.919144,0.565975,4.665369,-3.255722,-0.539764,0.623367,0,8.7311,36.2091,7.0648,229.5111,74.7526,119.5114,0,65.0306,60.0148,30.368523,58,NaN,6.084,22.755001,32.2,14 / 31,505018,2020-01-17 15:29:58:245
-6.592834,-10.450119,-1.46814,-1.701455,-9.548495,-1.44972,3.63455,-9.038141,4.516755,-3.046051,0.489456,1.378479,0,4.7806,30.5588,7.0129,243.0581,76.8243,130.4326,0,52.07184,60.014935,30.368551,56,NaN,8.028,27.306,23.1,16 / 31,510018,2020-01-17 15:30:03:245
4.126007,-16.372177,-2.258224,-1.882652,-9.501287,-1.53348,4.333437,-9.229805,3.760268,-3.128418,0.666992,1.164536,0,6.6803,34.2606,4.3152,61.6271,75.6643,129.1639,0,64.51775,60.015038,30.368622,56,NaN,7.092,16.687,27.7,18 / 31,515017,2020-01-17 15:30:08:244
-1.943298,-14.259293,-3.491226,-2.127346,-9.055599,-3.10498,3.080898,-8.784601,1.789065,-3.05954,1.685394,1.058182,0,5.1804,31.0089,1.564,283.1933,81.6337,63.937,0,57.41654,60.01508,30.368671,57,NaN,6.084,13.653,25.9,18 / 31,520017,2020-01-17 15:30:13:244
-1.746963,-2.087173,2.698975,-2.983099,-7.919156,-4.95565,-1.366471,3.491168,6.866351,-1.8629,2.463577,2.569794,0,10.3317,33.3588,6.9092,149.0336,74.418,132.8552,0,56.28905,60.01514,30.36868,56,NaN,3.42,16.687,8.8,18 / 31,525019,2020-01-17 15:30:18:246
2.015518,-0.392075,5.10994,-2.915931,-7.567037,-5.514316,2.279689,7.656205,9.742025,-1.022751,2.442978,0.878861,0,13.9053,35.6293,14.3127,140.9698,66.5285,143.5272,0,59.73645,60.015217,30.368696,53,NaN,5.364,18.203999,17.2,19 / 31,530017,2020-01-17 15:30:23:244
3.054611,-0.469894,5.40802,-2.656582,-8.408572,-4.290555,-1.864144,-0.633219,3.697367,-2.496368,2.510437,2.460068,0,10.0784,34.5123,11.9797,24.7082,59.0299,148.2355,0,58.02782,60.01528,30.368624,55,NaN,4.644,12.136,355.6,18 / 31,535019,2020-01-17 15:30:28:246
3.28923,-1.010986,4.63588,-3.037681,-8.069591,-4.671678,-2.277459,2.480824,5.205939,-2.031021,2.361664,2.626434,0,9.9976,34.3185,10.7025,195.9285,76.3167,130.7848,0,52.97002,60.01536,30.368553,53,NaN,5.724,12.136,331.1,18 / 31,540017,2020-01-17 15:30:33:244
-5.723739,-5.915512,0.990707,-2.554982,-8.178151,-4.770776,-2.503699,2.407576,5.57802,-3.195892,0.858215,1.059601,0,5.5801,27.8626,12.5595,208.8235,77.2477,139.0834,0,65.31893,60.01544,30.368458,53,NaN,5.004,18.203999,346.1,19 / 31,545018,2020-01-17 15:30:38:245
-3.618042,-2.157806,2.00705,-2.099338,-8.062583,-5.172806,-0.36202,8.109782,8.763486,-2.485535,2.220505,2.54068,0,9.082,30.0598,12.4146,150.9513,72.2345,153.5717,0,53.35556,60.01556,30.368443,53,NaN,5.4,18.203999,342.9,18 / 31,550018,2020-01-17 15:30:43:245
-3.705429,-4.937469,1.00148,-2.094343,-8.956815,-3.399938,1.378595,-4.202494,0.82624,-2.832107,1.320725,1.661118,0,11.9324,29.3594,4.2618,221.2545,82.1084,79.4805,0,57.49225,60.015667,30.368345,49,NaN,6.768,24.272,332.7,18 / 31,555018,2020-01-17 15:30:48:245
-4.023849,-4.18689,1.09845,-1.914934,-8.904041,-3.636132,1.890719,-5.567509,1.431173,-3.173691,1.891174,1.507019,0,4.2816,27.4597,5.2155,275.176,82.9691,77.3167,0,63.94226,60.0158,30.368305,50,NaN,7.02,24.272,320.1,17 / 31,560018,2020-01-17 15:30:53:245
3.475983,-15.832291,-1.858383,-1.413483,-9.289493,-2.80674,5.603134,-9.728636,2.857073,-2.762512,2.743561,1.456055,0,0.0244,31.2576,-3.389,86.0224,84.9744,28.9676,0,60.58138,60.015865,30.368217,48,NaN,4.716,22.755001,326.9,17 / 30,565018,2020-01-17 15:30:58:245
1.652802,-22.812576,-3.460113,-1.471165,-9.23314,-2.958916,4.990858,-8.304363,2.370804,-2.826248,1.505722,1.169678,0,0.1785,29.4571,-4.0848,80.8416,83.7516,47.6245,0,70.47206,60.01592,30.368097,43,NaN,6.084,25.789,317.5,14 / 31,570018,2020-01-17 15:31:03:245
-6.128357,-13.600891,5.697708,0.098025,-9.478815,2.512537,-5.91242,-3.089992,-4.074229,-0.615463,-0.073715,0.287811,0,-1.0666,28.511,-9.0302,131.1883,73.3741,-3.665,0,61.30564,60.015965,30.368044,45,NaN,0.936,28.823,342.6,14 / 31,575017,2020-01-17 15:31:08:244
-4.356643,-14.46759,-5.32399,0.302086,-9.398036,2.784968,-7.348879,-3.103844,-5.433343,-0.148697,-0.564987,-0.073135,0,1.7334,27.5604,-8.0292,225.9237,76.9131,2.9081,0,67.98705,60.016006,30.368113,46,NaN,4.824,30.340002,0.8,14 / 31,580018,2020-01-17 15:31:13:245
-6.813095,-12.29126,-0.14534,0.170254,-9.446047,2.629372,-2.702364,-0.781978,-6.658829,1.895004,-1.588867,-0.714951,0,4.5364,33.7616,-0.9766,245.6296,84.5615,48.455,0,65.6341,60.016083,30.368233,45,NaN,5.76,33.374,26.5,13 / 31,585018,2020-01-17 15:31:18:245
-5.163498,-13.689484,9.692444,-1.971371,-9.532185,-1.192285,-5.252805,-4.972037,0.166165,2.740646,-2.6987,-1.389267,0,18.8309,31.7612,21.8704,149.9481,59.2039,148.6332,0,59.3692,60.016148,30.368343,44,NaN,2.7,21.237999,40.8,15 / 31,590017,2020-01-17 15:31:23:244
1.160797,-11.163589,-8.001907,-1.833909,-8.919042,-3.641136,-0.16931,-8.334578,-13.934731,1.009415,-0.039795,0.107086,0,17.1814,34.3094,16.9708,77.0824,54.2931,162.7575,0,66.61208,60.016224,30.368414,44,NaN,6.228,18.203999,335.8,18 / 31,595018,2020-01-17 15:31:28:245
3.681885,3.133377,8.356476,-2.462418,-7.728438,-5.511635,1.026974,2.42899,11.103605,0.632492,3.062256,0.459152,0,8.9783,31.3599,14.6133,193.4253,75.459,141.9658,0,68.82251,60.01635,30.368364,47,NaN,6.912,16.687,357.2,18 / 31,600018,2020-01-17 15:31:33:245
-3.565369,-10.269363,-3.754593,-2.180671,-9.0672,-3.033306,5.304093,-7.65784,3.534186,-1.8423,1.793167,2.01088,0,23.8815,38.6642,37.0667,224.7998,84.15,106.0311,0,64.95272,60.01645,30.36836,48,NaN,4.212,16.687,11.1,19 / 31,605018,2020-01-17 15:31:38:245
4.833496,-22.818571,0.034225,-1.748281,-9.585514,-1.109875,5.194464,-10.414653,2.656348,-2.857132,1.701553,1.249222,0,-2.8687,29.3091,-4.9316,53.0075,75.7397,3.2765,0,67.77774,60.016552,30.368374,51,NaN,3.996,15.170001,351.5,20 / 31,610018,2020-01-17 15:31:43:245
-6.267227,-11.930939,-4.311249,0.473964,-9.428607,2.654644,-2.172583,1.88908,-2.207217,1.880982,-0.820816,-0.811188,0,-0.766,37.5595,7.3227,354.4787,83.1876,17.1293,0,70.28427,60.016624,30.368307,51,NaN,3.42,15.170001,344.5,23 / 31,615017,2020-01-17 15:31:48:244
3.253327,-4.706436,-0.622986,-0.815139,-9.763065,0.434178,-1.103419,-0.369484,-3.520263,2.46048,-1.803345,-1.064529,0,9.9289,35.5087,30.9738,216.8415,71.6685,138.9539,0,68.76547,60.016685,30.368208,51,NaN,5.364,18.203999,314.2,22 / 31,620018,2020-01-17 15:31:53:245
-0.675568,-7.276611,1.65152,-1.778157,-9.4183,-2.07465,-2.762909,-2.032367,-3.143336,3.51918,-4.490829,-1.665161,0,-2.1164,36.2579,26.2756,247.3903,73.8217,139.4005,0,70.1774,60.01674,30.36806,50,NaN,5.58,16.687,353.6,21 / 31,625018,2020-01-17 15:31:58:245
2.506333,-4.568771,-2.862747,-1.303989,-9.615653,-1.417474,1.754069,3.182454,-1.111725,3.507111,-2.711136,-1.178162,0,11.5356,31.8588,17.6743,105.0102,59.4507,162.5491,0,66.32924,60.016773,30.368023,48,NaN,4.428,18.203999,330.2,19 / 31,630018,2020-01-17 15:32:03:245
-6.263626,-12.837143,-8.539413,-1.924429,-9.309919,-2.40673,-1.421644,0.913164,16.690426,2.846466,-3.712128,-1.783401,0,15.0284,34.8602,24.8184,127.5431,58.0006,163.0837,0,71.00107,60.01686,30.36799,48,NaN,7.632,18.203999,356.3,19 / 31,635018,2020-01-17 15:32:08:245
-7.476288,-11.158813,13.53154,-1.658539,-8.941856,-3.669176,3.460889,4.681126,6.611384,-1.181122,-1.451981,-0.494446,0,15.5304,38.4598,21.0175,114.1832,61.6254,161.8322,0,65.67722,60.016994,30.367994,48,NaN,5.724,18.203999,0.9,20 / 31,640018,2020-01-17 15:32:13:245
13.280243,-5.872406,-24.365082,-0.927426,-8.485533,-4.827628,0.874501,-2.436704,-2.460531,0.009308,-1.73056,0.008545,0,13.2797,31.2088,23.8724,146.373,65.5905,158.1679,0,62.1704,60.017063,30.367949,50,NaN,6.984,19.720999,347.4,21 / 31,645018,2020-01-17 15:32:18:245
-11.487778,-11.052261,10.694412,-1.386642,-8.674899,-4.35818,2.010394,2.408266,4.667545,0.766708,-1.685806,-0.170242,0,15.1337,36.5601,19.4672,116.0059,63.0247,159.9812,0,60.71651,60.017197,30.36773,49,NaN,10.728,19.720999,325.7,21 / 31,650018,2020-01-17 15:32:23:245
-6.270813,-23.244736,11.174454,-1.243781,-8.642059,-4.465222,3.917044,-9.937703,-9.844254,-1.278946,-0.281433,-0.977707,0,13.382,35.8597,22.3175,118.8199,60.7117,165.2372,0,65.35073,60.017315,30.367668,51,NaN,4.608,19.720999,343.2,21 / 31,655018,2020-01-17 15:32:28:245
-0.079407,-9.606171,-9.802353,-1.521944,-8.87939,-3.874343,2.181869,-15.194547,-16.18843,-0.100586,-0.141891,-0.108994,0,12.532,33.2077,24.823,118.7302,55.6897,167.2042,0,66.78675,60.01739,30.367651,52,NaN,4.824,18.203999,354.4,21 / 31,660017,2020-01-17 15:32:33:244
-4.075333,-14.201843,-19.113403,-1.281411,-8.672757,-4.394505,0.440934,-6.790357,-10.718741,1.581467,-0.287827,0.326874,0,11.4319,26.9089,28.7704,178.287,56.3601,159.8279,0,62.50405,60.01749,30.367664,51,NaN,6.588,16.687,10.4,22 / 31,665018,2020-01-17 15:32:38:245
3.425705,-27.84999,-17.074738,-1.282793,-8.630342,-4.476831,1.628284,-5.525215,-10.043481,1.55661,-0.378387,0.272018,0,11.9324,32.4097,27.6184,165.7518,56.4011,160.4406,0,61.50174,60.017563,30.367657,50,NaN,6.84,16.687,0,22 / 31,670018,2020-01-17 15:32:43:245
4.331909,-0.105972,5.767151,-1.960713,-8.16941,-5.05833,-1.047476,4.469558,7.183738,-0.580841,2.630814,0.446899,0,5.1285,33.0597,16.4658,181.3787,76.1757,161.9557,0,51.58992,60.01766,30.367647,50,NaN,6.228,15.170001,17.1,22 / 31,675017,2020-01-17 15:32:48:244
0.6185,-1.043304,4.622711,-1.633484,-7.985538,-5.452824,-0.746567,6.704985,8.745003,-1.631195,2.893051,1.119797,0,3.4256,31.2088,19.8654,194.4414,71.9916,164.5154,0,62.69631,60.017727,30.367617,52,NaN,4.824,15.170001,339.8,23 / 31,680018,2020-01-17 15:32:53:245
1.58696,0.951065,2.367386,-1.171497,-8.130739,-5.356217,1.457934,8.283151,9.882284,-0.64032,2.49411,0.44548,0,-2.2705,24.2599,19.9677,226.1017,67.2723,162.1727,0,53.18332,60.017788,30.367588,51,NaN,5.22,15.170001,14.6,22 / 31,685018,2020-01-17 15:32:58:245
3.176712,1.180908,4.189362,-0.921346,-7.868392,-5.780131,1.885268,7.37776,10.424982,-1.922363,2.986969,1.839737,0,3.2776,33.3603,24.4644,217.1114,61.9632,162.9374,0,58.36724,60.017864,30.367619,50,NaN,5.364,15.170001,7.1,23 / 31,690017,2020-01-17 15:33:03:244
-2.515503,-3.550033,1.208588,-1.431022,-8.173554,-5.226429,-1.473199,4.94228,7.105431,-3.00415,1.458313,1.938797,0,-3.421,29.158,1.4648,31.7535,81.6896,-4.3122,0,55.76905,60.01793,30.367619,54,NaN,5.616,15.170001,353.9,23 / 31,695018,2020-01-17 15:33:08:245
5.062149,-19.184174,-3.039932,-0.72044,-9.77248,0.387289,-2.801561,-4.138391,1.771493,-3.033432,1.157547,1.40741,0,-12.2177,23.6572,-3.6819,85.5662,72.5985,-13.2683,0,66.51879,60.018,30.367657,52,NaN,4.824,13.653,7.3,23 / 31,700018,2020-01-17 15:33:13:245
-7.725296,-13.841507,0.881775,0.164384,-9.380025,2.856308,-1.988792,-3.288853,-7.82685,-0.315948,-0.62001,-0.08432,0,-1.3153,28.8101,-2.8778,66.6613,84.0217,33.2529,0,65.78751,60.018085,30.36767,54,NaN,5.364,15.170001,355.8,23 / 31,705018,2020-01-17 15:33:18:245
0.191147,-9.027969,2.013031,-1.35374,-9.712673,-0.041913,-1.074354,0.758996,-2.346329,3.281265,-1.004761,-1.849106,0,14.4836,31.9107,14.0732,119.5267,62.6074,147.5483,0,65.00838,60.018177,30.36761,51,NaN,5.652,15.170001,353.9,23 / 31,710017,2020-01-17 15:33:23:244
1.124878,-6.831283,0.950012,-0.972153,-9.755978,0.214962,1.594869,2.963915,0.139327,1.991943,0.065308,-0.448624,0,15.1382,32.4097,21.0236,139.4059,65.427,161.9946,0,64.88156,60.01827,30.367619,52,NaN,5.256,16.687,5.1,23 / 31,715017,2020-01-17 15:33:28:244
1.321198,-5.769455,3.126343,-0.531717,-9.73083,1.094815,1.24775,1.841197,-1.444473,2.763901,-0.504257,-0.654587,0,10.4828,31.3614,18.9713,190.3094,75.9929,145.8214,0,67.57387,60.01836,30.367632,52,NaN,5.868,15.170001,9.9,23 / 31,720018,2020-01-17 15:33:33:245
1.707871,-6.692428,4.825028,-0.556311,-9.598566,1.930918,3.221107,4.178123,-1.508036,2.120834,-2.0448,-0.880249,0,16.748,31.6101,14.2929,86.2572,59.0498,163.5107,0,64.30103,60.018467,30.367676,50,NaN,5.904,16.687,18.5,23 / 31,725018,2020-01-17 15:33:38:245
5.484726,-0.188568,11.094238,-1.813778,-8.746139,-4.047922,0.623078,-0.54403,8.4499,-1.293503,-0.399689,0.331146,0,14.0335,32.5607,18.718,150.1779,65.1629,153.7213,0,67.5551,60.018524,30.367748,52,NaN,4.536,15.170001,22.8,23 / 31,730018,2020-01-17 15:33:43:245
-5.855423,-17.41246,-26.082916,-1.4045,-8.93468,-3.79068,3.645217,-11.237835,-10.084551,-1.179352,-0.023117,-0.083435,0,20.2911,31.8054,26.6174,118.8669,53.7494,163.9106,0,66.94879,60.018585,30.367788,51,NaN,6.012,15.170001,24.7,23 / 32,735018,2020-01-17 15:33:48:245
-0.096161,-0.953522,1.455185,-1.123625,-8.819288,-4.1386,1.948674,8.771684,11.130205,-0.310806,2.06517,0.279465,0,19.1284,29.4052,25.8255,97.954,55.9726,161.4003,0,61.61754,60.018654,30.36789,51,NaN,4.284,15.170001,25.1,23 / 32,740018,2020-01-17 15:33:53:245
2.934891,1.470612,2.740875,-0.664876,-8.423193,-4.977766,3.301224,9.797956,9.278067,1.972061,1.508743,0.432526,0,18.1992,28.215,28.1403,142.4431,56.0947,162.1029,0,58.57744,60.018734,30.367977,51,NaN,8.136,18.203999,26.5,25 / 32,745017,2020-01-17 15:33:58:244
3.613648,0.054443,4.175003,-0.885823,-8.048001,-5.533117,0.637101,8.798484,10.44083,-2.096359,2.430893,2.302414,0,10.1547,31.9107,13.4399,98.7158,66.4659,165.9991,0,63.54395,60.01882,30.368067,46,NaN,5.94,16.687,24.5,25 / 32,750018,2020-01-17 15:34:03:245
-2.408966,-12.861084,-2.494049,-0.415434,-9.437109,-2.634154,-2.32015,-0.478647,4.103691,-3.248794,2.315674,2.374848,0,4.8782,28.2074,-9.4879,199.5315,82.523,16.4782,0,65.26471,60.018867,30.36813,42,NaN,3.78,16.687,41.2,25 / 32,755019,2020-01-17 15:34:08:246
-5.577682,-11.417374,-2.310898,-0.033373,-9.385578,-2.842568,2.747818,-6.696291,5.839015,-4.034073,0.227051,-0.466736,0,1.4313,27.0096,-19.7327,185.0981,83.6154,-1.4408,0,66.40166,60.018925,30.368246,43,NaN,5.58,16.687,49,26 / 32,760018,2020-01-17 15:34:13:245
6.104813,-17.189804,-4.173584,-0.029581,-8.838689,-4.248187,6.408977,-10.965479,3.187515,-4.322586,2.653717,0.478149,0,-21.2173,9.6069,-18.7836,139.0199,72.0739,-12.4617,0,64.35121,60.01898,30.368263,41,NaN,3.168,15.170001,359.3,26 / 32,765018,2020-01-17 15:34:18:245
-2.950058,-16.189026,-20.91983,-1.797656,-8.848076,-3.827582,0.018305,15.469102,13.456074,3.145981,-0.729568,-1.283279,0,9.5856,42.0593,131.1234,186.9914,50.3632,171.6664,0,70.69991,60.019035,30.368238,43,NaN,5.76,15.170001,323.8,27 / 32,770018,2020-01-17 15:34:23:245
-1.697891,-3.236389,4.054093,-2.774526,-8.386163,-4.259654,4.120449,-10.164508,1.379547,-3.358169,1.135544,0.414413,0,4.1794,-2.7924,-27.1835,187.3526,73.4081,1.1471,0,58.22061,60.01918,30.36808,51,NaN,9.72,18.203999,324.8,27 / 32,775017,2020-01-17 15:34:28:244
-3.995117,-15.444427,10.25148,-0.812594,-9.546439,2.091791,-2.488627,-6.00793,1.126685,-3.079605,1.585968,1.578919,0,11.2823,18.66,-21.431,206.428,74.1907,7.7067,0,68.78591,60.0193,30.368038,51,NaN,5.58,16.687,353.2,27 / 31,780017,2020-01-17 15:34:33:244
-3.912521,-15.8694,-6.013519,0.385983,-9.402662,2.75887,-2.495028,-5.160561,-5.946706,-2.230942,0.885376,1.150147,0,10.9344,26.3107,-13.0768,240.8157,75.1578,0.7627,0,67.32817,60.01935,30.3681,49,NaN,6.12,16.687,53.8,26 / 31,785018,2020-01-17 15:34:38:245
-4.655929,-12.560608,-4.183151,0.769817,-9.365806,2.803471,-2.600105,-1.641858,-7.890604,1.667221,-0.09874,-0.44278,0,11.7844,29.863,-5.7266,286.3485,77.2639,-14.3569,0,65.81879,60.019375,30.368189,47,NaN,5.076,16.687,56.2,25 / 31,790018,2020-01-17 15:34:43:245
-1.644012,-9.415833,-2.885498,0.598366,-9.337156,2.937661,-2.638256,1.508058,-2.374349,1.380493,-0.700973,-0.367493,0,18.5318,29.2099,2.6215,106.8759,79.6561,156.5885,0,65.15232,60.01942,30.368298,47,NaN,3.96,16.687,34.5,27 / 31,795018,2020-01-17 15:34:48:245
-3.367844,-8.334839,0.459198,-0.135627,-9.803933,0.186797,2.258588,3.908231,0.070609,2.362656,-2.298691,-0.460892,0,13.1332,28.511,-6.1264,100.9072,67.5556,174.8127,0,67.41693,60.019466,30.36843,48,NaN,5.796,16.687,31.3,27 / 31,800017,2020-01-17 15:34:53:244
1.138046,-7.627365,1.997482,-0.656507,-9.772047,-0.496456,1.638564,3.801963,-0.702375,3.231735,-3.00531,-1.117615,0,25.885,27.3087,22.673,124.201,62.8569,165.6502,0,63.25351,60.01951,30.368555,46,NaN,5.4,16.687,49.5,26 / 31,805018,2020-01-17 15:34:58:245
13.523254,-6.945007,-26.832306,-0.845964,-9.107809,-3.535895,-2.78201,-6.268063,6.736433,1.601532,-0.964447,-0.993698,0,27.8854,27.6672,21.6064,115.0392,62.61,169.2729,0,62.20665,60.019547,30.368694,45,NaN,4.248,16.687,52.6,27 / 31,810018,2020-01-17 15:35:03:245
16.975693,-7.055145,-39.198364,-0.312295,-8.659769,-4.591434,-0.050025,-4.893556,-0.111141,-1.564255,-0.099274,-0.661865,0,23.9807,28.7094,22.7692,107.5019,59.6601,175.0511,0,63.75295,60.01961,30.368898,47,NaN,5.976,15.170001,57.6,26 / 31,815018,2020-01-17 15:35:08:245
0.984818,-5.762268,1.674255,-0.560153,-8.578017,-4.719559,-1.659748,-7.612779,5.600374,-0.679016,-1.298584,-0.667374,0,24.1821,28.508,21.1182,112.8529,63.2609,171.4461,0,62.18415,60.019688,30.369034,43,NaN,5.22,15.170001,36.8,26 / 31,820018,2020-01-17 15:35:13:245
3.911728,-10.161621,-5.412582,-0.59491,-9.013363,-3.817822,4.96013,-3.561104,-1.586028,0.122589,-0.101944,-0.170242,0,23.1308,27.1591,30.3726,116.0369,55.7062,177.1371,0,64.9279,60.01977,30.369167,44,NaN,10.404,15.170001,40.3,26 / 31,825017,2020-01-17 15:35:18:244
1.710266,-0.455521,2.189011,-0.205853,-8.464046,-4.948528,-0.060668,3.519634,-2.944666,1.259232,1.468445,0.673615,0,13.9267,29.1107,17.2119,98.9174,58.9514,168.9089,0,59.68727,60.019806,30.369324,44,NaN,4.86,18.203999,69.3,26 / 31,830017,2020-01-17 15:35:23:244
-1.720627,-4.125839,1.784393,-1.001875,-8.235263,-5.229444,1.179211,-4.65146,1.8063,-3.585068,2.069595,0.980957,0,12.2833,29.808,5.9128,99.1851,77.9847,169.1732,0,63.38782,60.019794,30.369423,46,NaN,4.572,15.170001,69.7,26 / 31,835018,2020-01-17 15:35:28:245
0.467667,-14.663925,9.965378,-0.442248,-9.693846,-1.415682,-2.864038,-4.681203,-2.280737,-3.274017,0.906326,1.236084,0,6.2851,24.3103,-16.5802,228.9892,72.3184,-9.9044,0,61.95757,60.01984,30.369549,44,NaN,4.932,15.170001,45.5,26 / 31,840018,2020-01-17 15:35:33:245
-5.727325,-12.455261,-1.466934,0.392963,-9.399867,2.767396,-4.416072,-2.666859,-5.299782,1.632416,-0.110458,-0.23381,0,16.0843,28.0609,-1.1276,268.9348,85.305,5.738,0,67.25154,60.01992,30.369656,45,NaN,6.732,16.687,39.9,25 / 31,845018,2020-01-17 15:35:38:245
-0.558243,-7.700378,0.317947,-1.17795,-9.600768,-1.614956,0.06665,0.619336,-1.999611,4.019501,-4.247589,-0.978424,0,27.1774,26.1108,23.9197,121.0593,59.6703,166.526,0,66.19994,60.01999,30.36982,45,NaN,5.112,16.687,53.7,24 / 31,850017,2020-01-17 15:35:43:244
-4.14476,-14.375412,-22.446121,-1.031346,-9.002725,-3.749354,1.536455,5.351039,3.343998,3.356552,-0.07193,1.204651,0,20.7321,26.9592,24.7208,113.812,57.7851,174.9073,0,64.94518,60.02003,30.369944,44,NaN,7.668,15.170001,51.5,25 / 31,855018,2020-01-17 15:35:48:245
-1.107712,-1.605942,3.430405,-1.42279,-7.845916,-5.70856,-1.021715,2.109472,5.65156,-1.032867,1.936081,0.336288,0,19.2825,26.9074,5.2109,186.0458,81.713,99.956,0,59.22609,60.0201,30.370064,47,NaN,2.7,16.687,35.6,26 / 31,860017,2020-01-17 15:35:53:244
-4.709793,-13.086136,-3.183578,-0.183342,-9.273526,3.1841,-3.604521,-2.498497,-4.611884,0.834015,-1.056061,-0.172546,0,10.3348,24.3118,-7.428,227.6562,78.5255,24.922,0,67.60376,60.020123,30.370075,47,NaN,2.916,15.170001,77.9,26 / 31,865017,2020-01-17 15:35:58:244
-1.064621,-2.521728,-2.211532,-1.529788,-8.484572,-4.67356,1.207617,-3.597628,-7.55505,2.058884,0.390213,0.523605,0,15.3824,25.7126,21.1151,117.2967,53.7084,163.2914,0,58.88909,60.020157,30.370092,48,NaN,5.652,15.170001,17.9,27 / 31,870018,2020-01-17 15:36:03:245
-5.544174,-12.968826,-1.041962,-0.309843,-9.488781,2.457116,-2.988396,-1.942156,-6.446333,1.023087,-0.675049,-0.18782,0,5.2826,25.1114,-11.0291,202.5063,77.1336,12.6435,0,55.541,60.02024,30.370138,48,NaN,4.392,15.170001,22.8,27 / 31,875018,2020-01-17 15:36:08:245
-0.266159,-11.325211,-7.906143,-1.479917,-8.559821,-4.55079,-0.79013,1.841503,-4.429594,-0.307434,-0.053833,-0.076859,0,16.8823,29.9606,24.1165,128.4423,56.4604,161.7699,0,60.64728,60.020317,30.370182,48,NaN,2.7,15.170001,9.4,26 / 31,880018,2020-01-17 15:36:13:245
-6.463547,-12.693497,-1.374756,-0.415117,-9.604839,1.935233,-2.094073,-1.511867,-5.985777,1.313721,-0.566757,-0.357727,0,12.1353,31.1081,2.0737,182.3234,83.6095,97.8121,0,64.59027,60.020405,30.370209,50,NaN,6.192,15.170001,12.4,26 / 31,885017,2020-01-17 15:36:18:244
1.354721,-2.156601,1.442017,-1.630141,-8.06496,-5.335675,1.841059,6.31531,4.761505,1.969925,0.683334,0.245041,0,13.9282,30.661,17.7658,113.8178,58.9635,158.2176,0,63.79532,60.020515,30.370235,58,NaN,7.272,15.170001,24.3,26 / 31,890018,2020-01-17 15:36:23:245
-0.999969,-8.419846,-0.688812,-1.331181,-9.659492,-1.045254,-3.356502,-0.432652,5.829634,1.925552,-2.505707,-0.97612,0,21.4325,30.0598,18.1213,130.8855,62.699,152.7064,0,55.36444,60.020588,30.370287,55,NaN,3.24,13.653,16.1,26 / 31,895018,2020-01-17 15:36:28:245
-6.367782,-12.349915,-4.082596,-1.002771,-9.753264,-0.196674,-3.832045,-2.957046,-4.550771,-3.004852,-0.472122,0.707718,0,13.5345,29.6112,-4.9286,202.1923,80.2852,55.847,0,61.22589,60.020638,30.370325,54,NaN,4.68,15.170001,22.8,26 / 31,900017,2020-01-17 15:36:33:244
-6.342636,-10.851151,-6.436096,-1.772906,-9.600827,-0.922671,1.341101,-5.438529,3.765235,-2.753631,-1.116775,1.049835,0,14.7812,31.9595,-1.7868,199.381,78.8925,29.6927,0,50.6138,60.02068,30.370415,55,NaN,4.32,15.170001,28.1,26 / 31,905017,2020-01-17 15:36:38:244
2.247757,-2.68573,2.865372,-1.753495,-7.934124,-5.490474,3.147035,6.283387,6.521075,-0.365662,1.98172,0.717835,0,13.7283,34.8602,11.7142,78.585,62.0927,154.9296,0,48.06345,60.02071,30.370516,58,NaN,2.916,15.170001,72,25 / 31,910018,2020-01-17 15:36:43:245
-5.128784,-11.582581,-2.597,-0.465156,-9.633574,1.774336,-3.399275,-0.42935,-5.476608,1.127487,-0.37767,-0.221725,0,6.5857,31.3629,-4.126,99.515,82.6414,111.347,0,58.17951,60.02071,30.370575,59,NaN,2.088,15.170001,97.1,25 / 31,915018,2020-01-17 15:36:48:245
-0.530716,-1.469467,0.022263,-1.563205,-7.758532,-5.790677,0.70386,4.446385,7.536766,0.084763,1.793335,0.319778,0,10.5316,30.2597,4.8141,141.043,75.7971,129.7259,0,54.91388,60.02074,30.370596,58,NaN,4.716,15.170001,20.5,25 / 31,920018,2020-01-17 15:36:53:245
-2.996734,-8.740662,-2.303711,-1.58409,-9.667555,-0.446562,-1.198669,0.888209,-2.350823,1.404984,-0.380157,-0.390762,0,18.5333,28.5095,12.7701,166.7994,72.1854,131.9074,0,63.94655,60.020794,30.370604,60,NaN,4.356,16.687,22.2,24 / 31,925017,2020-01-17 15:36:58:244
-6.24089,-14.302399,-5.838745,-2.282416,-9.282183,-2.191359,0.177261,-7.568915,5.143826,-3.081909,1.500046,1.421082,0,10.8795,36.7569,2.562,144.8529,79.4249,46.1624,0,48.61386,60.020786,30.37062,59,NaN,0.648,18.203999,235.2,23 / 31,930018,2020-01-17 15:37:03:245
-6.432419,-9.00882,-1.086258,-1.913446,-9.264313,-2.584885,0.448767,0.047883,-1.608486,0.239944,1.874298,0.493942,0,8.3298,29.4586,24.0707,177.509,70.1565,162.9392,0,53.05438,60.02078,30.370598,59,NaN,1.404,34.891,217.7,23 / 31,935018,2020-01-17 15:37:08:245
-2.92012,-13.518295,-14.162186,-1.685567,-9.264847,-2.737126,2.525355,5.220886,3.651666,2.321106,0.034943,0.165131,0,25.6805,25.5615,10.0174,100.6306,59.358,156.0337,0,70.19695,60.02078,30.370598,59,NaN,1.404,34.891,217.7,20 / 31,940018,2020-01-17 15:37:13:245
-0.463669,1.88121,8.011704,0.292382,1.48702,9.688842,-0.092002,-0.78197,1.653175,0.378967,-0.417267,-0.2164,82,-14.7202,1.5121,-44.6823,68.3811,-4.7425,-0.6933,5,48.32311,60.02078,30.370598,59,NaN,1.404,34.891,217.7,20 / 30,945017,2020-01-17 15:37:18:244
