ACCELEROMETER_X,ACCELEROMETER_Y,ACCELEROMETER_Z,GRAVITY_X,GRAVITY_Y,GRAVITY_Z,LINEAR_ACCELERATION_X,LINEAR_ACCELERATION_Y,LINEAR_ACCELERATION_Z,GYROSCOPE_X,GYROSCOPE_Y,GYROSCOPE_Z,LIGHT,MAGNETIC_FIELD_X,MAGNETIC_FIELD_Y,MAGNETIC_FIELD_Z,ORIENTATION_Z_azimuth,ORIENTATION_X_pitch,ORIENTATION_Y_roll,PROXIMITY,SOUND_LEVEL,LOCATION_Latitude,LOCATION_Longitude,LOCATION_Altitude,LOCATION_Altitude-google,LOCATION_Speed,LOCATION_Accuracy,LOCATION_ORIENTATION,Satellites_in_range,Time,Date
-2.344314,0.970215,8.47139,-0.139601,1.953323,9.609133,-1.411657,-1.039558,-2.615036,-0.372223,-0.011932,0.636688,241,-19.9402,-1.8204,-50.2579,63.7963,-15.6967,3.3474,5,58.75055,59.99826,30.360043,0,NaN,0,23.997,0,0 / 1,17,2020-01-17 14:56:36:943
-2.344314,0.970215,8.47139,-0.139601,1.953323,9.609133,-1.411657,-1.039558,-2.615036,-0.372223,-0.011932,0.636688,241,-19.9402,-1.8204,-50.2579,63.7963,-15.6967,3.3474,5,58.75055,59.99826,30.360043,0,NaN,0,23.997,0,0 / 1,2517,2020-01-17 14:56:36:943
-12.730362,-13.772079,9.188461,-0.508419,-9.253759,-3.206218,1.749046,0.23281,7.761884,-0.360153,-1.382385,-0.371231,0,10.7864,49.0204,8.7921,38.9269,63.9792,174.6668,0,64.3011,59.99826,30.360043,0,NaN,0,23.997,0,0 / 1,5016,2020-01-17 14:56:41:942
-0.196716,-11.958466,-1.660858,-1.088211,-9.455068,-2.363868,-2.930449,-2.221996,6.135381,-3.317337,-0.035538,1.000839,0,-3.7125,40.8188,-21.8597,135.9955,82.4149,23.727,0,52.47882,59.99826,30.360043,0,NaN,0,23.997,0,0 / 1,10017,2020-01-17 14:56:46:943
-6.886123,-13.83194,4.37851,-1.454052,-9.670255,-0.736409,-5.454508,-3.521347,6.896569,2.940384,-2.517242,-0.263992,0,20.9381,42.4698,13.0417,91.5665,67.3564,164.9029,0,63.50246,59.99826,30.360043,0,NaN,0,23.997,0,0 / 1,15017,2020-01-17 14:56:51:943
-2.272491,-15.15712,-0.512848,-1.159579,-9.378323,-2.621605,-1.038689,-5.51164,3.052187,-1.284454,0.897812,0.977936,0,14.3372,52.6688,-8.5648,115.9467,83.2473,101.3695,0,57.84293,59.99853,30.360659,0,NaN,0,57.761005,0,0 / 1,20017,2020-01-17 14:56:56:943
0.596954,-3.414764,2.074097,-1.352971,-8.278935,-5.079279,1.761646,5.108353,7.758853,-0.295532,1.3573,0.305923,0,20.3384,45.9183,3.4485,85.7037,73.2946,150.1295,0,54.03867,59.99853,30.360659,0,NaN,0,57.761005,0,0 / 1,25016,2020-01-17 14:57:01:942
-2.441284,-12.902985,-6.699463,-1.239488,-9.684448,0.919524,-3.98493,-3.516834,-4.797659,-0.652222,-0.318192,0.313736,0,18.6371,43.6188,-19.31,248.5843,70.1391,10.7258,0,67.73224,59.99853,30.360659,0,NaN,0,57.761005,0,0 / 1,30016,2020-01-17 14:57:06:942
-1.811615,-7.051559,2.62117,-0.739251,-9.611847,1.798973,1.33149,3.126848,-0.08074,2.302475,-1.92923,-0.097992,0,14.3204,43.9133,-13.2462,133.3807,82.7669,129.4372,0,67.74936,59.99853,30.360659,0,NaN,0,57.761005,0,0 / 2,35016,2020-01-17 14:57:11:942
2.118469,-3.080765,2.981491,-0.964262,-8.658373,-4.502574,6.477144,5.543205,5.02357,1.210754,-0.84993,-0.820587,0,18.5364,34.1705,23.2437,127.5102,68.125,170.1984,0,67.54985,59.998463,30.361155,0,NaN,0,70.403,0,1 / 2,40017,2020-01-17 14:57:16:943
-1.79007,-20.346558,-23.327194,-0.86889,-8.56737,-4.692076,0.371281,-1.292586,-9.00289,1.928207,0.179993,0.197632,0,20.3384,37.1704,23.5413,114.2035,58.9484,163.353,0,66.65485,59.998463,30.361155,0,NaN,0,70.403,0,1 / 2,45016,2020-01-17 14:57:21:942
-3.519867,-8.701157,-0.425461,-1.021287,-8.59139,-4.616857,2.386155,-3.243857,1.72413,-2.431915,-0.058441,-0.103134,0,20.9381,43.9697,-9.2087,68.9399,75.7917,151.5184,0,53.93219,59.998463,30.361155,0,NaN,0,70.403,0,1 / 2,50017,2020-01-17 14:57:26:943
-1.776901,-2.390045,2.715729,-1.347635,-8.416104,-4.850099,-0.791673,-1.658717,2.56845,-2.443985,1.173538,0.918991,0,1.3885,36.6211,11.4838,260.1202,75.1578,155.9032,0,61.29973,59.998463,30.361155,0,NaN,0,70.403,0,2 / 3,55016,2020-01-17 14:57:31:942
3.656754,-23.312975,-6.923324,-1.235284,-9.701233,-0.728379,4.484846,-10.560245,0.925307,-3.31076,1.173889,-0.058212,0,5.188,41.42,-16.1591,229.6345,74.4543,-0.5467,0,54.45192,59.998653,30.361506,0,NaN,0,24.9,0,1 / 2,60016,2020-01-17 14:57:36:942
-7.068084,-12.044662,-1.852402,-0.189464,-9.299055,3.108385,-5.867752,-2.794072,-4.006152,-1.115784,0.363754,0.456131,0,6.4392,42.4698,-26.6571,169.721,78.2998,19.4466,0,68.77001,59.998653,30.361506,0,NaN,0,24.9,0,1 / 2,65016,2020-01-17 14:57:41:942
-1.313614,-8.282165,-1.696777,-0.97964,-9.731052,-0.719242,-5.48268,-4.215106,10.95463,3.029694,-2.832748,-1.287537,0,22.7386,43.3197,17.0914,97.6117,63.8322,161.0559,0,66.79979,59.998653,30.361506,0,NaN,0,24.9,0,1 / 2,70016,2020-01-17 14:57:46:942
-2.624435,-10.837982,-2.471298,-2.461348,-8.863309,-3.399104,2.364918,-2.954065,1.291051,-1.789383,-0.986465,0.687653,0,15.2878,44.6182,-9.4589,73.2959,75.3514,126.3107,0,57.41927,59.998653,30.361506,0,NaN,0,24.9,0,1 / 2,75016,2020-01-17 14:57:51:942
-1.963638,-9.588211,0.850647,-1.2112,-9.723707,0.391036,-0.409288,0.080323,-0.146897,-0.218475,-0.168167,0.150391,0,-5.8624,43.0695,-18.7576,88.8231,83.3303,59.0453,0,50.83037,59.998653,30.361506,0,NaN,0,24.9,0,1 / 2,80016,2020-01-17 14:57:56:942
-1.281296,-8.849594,-4.538696,-1.463981,-8.835083,-3.996052,-0.152541,0.502846,-0.029863,-0.246002,0.490692,-0.310333,0,-6.6116,39.27,27.6413,260.4338,64.6661,153.5661,0,73.9999,59.998653,30.361506,0,NaN,0,24.9,0,1 / 2,85016,2020-01-17 14:58:01:942
-1.444107,-10.292099,-1.256241,-1.027594,-9.601705,1.709297,-0.157747,-0.302787,-0.242315,-0.120468,0.189407,-0.028564,0,-7.2113,50.47,0.4425,21.9786,75.0644,24.8902,0,70.6561,59.998653,30.361506,0,NaN,0,24.9,0,1 / 2,90016,2020-01-17 14:58:06:942
-0.936523,-8.729889,-3.786911,-1.19014,-9.148843,-3.324549,-1.500039,0.363166,-0.125924,-0.076614,0.076309,0.55751,0,13.9374,47.2199,10.2417,69.3982,70.1568,171.0523,0,64.37606,59.998653,30.361506,0,NaN,0,24.9,0,1 / 2,95016,2020-01-17 14:58:11:942
-1.906189,-9.841995,0.049789,-1.28354,-9.634261,1.305343,-0.607836,-0.024189,-1.387931,0.217392,-0.297241,-0.10437,0,12.2375,42.5705,-17.7582,146.6865,80.0749,55.7133,0,68.46172,59.998653,30.361506,0,NaN,0,24.9,0,1 / 2,100016,2020-01-17 14:58:16:942
-1.27771,-9.383499,-1.37117,-2.174556,-9.348528,-2.011648,1.011618,0.531928,1.370779,-0.391235,0.97876,0.372864,0,9.1873,46.2189,-7.4081,53.9729,76.3253,127.1389,0,53.37671,59.998653,30.361506,0,NaN,0,24.9,0,1 / 2,105016,2020-01-17 14:58:21:942
-2.005539,-9.632507,0.910507,-1.796328,-9.626787,0.518231,-0.078969,0.165798,0.010224,0.031677,-0.333282,-0.067093,0,7.988,43.6691,-17.308,101.8704,78.4958,75.317,0,51.01094,59.998653,30.361506,0,NaN,0,24.9,0,1 / 2,110016,2020-01-17 14:58:26:942
2.915741,-4.972183,3.825455,-0.776137,-9.693388,-1.267372,-7.113868,-3.123478,13.244175,3.678269,-3.171142,-0.806747,0,4.9973,49.5316,15.2893,15.3258,58.1127,174.9457,0,67.97957,59.998653,30.361506,0,NaN,0,24.9,0,1 / 2,115016,2020-01-17 14:58:31:942
-7.494247,-8.685593,18.55458,-0.259169,-8.67032,-4.574797,-1.802533,-6.944072,8.969736,-0.533798,-1.865311,0.328125,0,0.4379,50.9689,-6.0593,2.041,64.982,170.7939,0,66.59011,59.998653,30.361506,0,NaN,0,24.9,0,1 / 2,120016,2020-01-17 14:58:36:942
0.875885,1.194077,5.645035,-1.20918,-8.293907,-5.091107,0.521039,7.082802,10.068377,-1.29866,2.075638,0.215027,0,-3.0121,48.3704,-1.0086,352.7839,79.0517,136.7578,0,67.06325,59.99963,30.36168,0,NaN,0,100,0,1 / 2,125016,2020-01-17 14:58:41:942
1.336762,-1.924377,1.781998,-1.81937,-7.869198,-5.562014,-2.400681,-4.635195,2.887815,-3.280395,2.434097,1.529923,0,-3.7125,49.4705,0.7416,343.9219,74.5682,152.9133,0,50.37435,59.99963,30.36168,0,NaN,0,100,0,1 / 2,130016,2020-01-17 14:58:46:942
-4.470367,-13.761307,-6.683899,-1.33508,-9.710266,0.314142,-3.93021,-4.950533,-5.524295,-3.532333,0.295044,0.915619,0,-11.113,42.72,-24.9084,118.8391,70.764,7.6699,0,68.00453,59.99963,30.36168,0,NaN,0,100,0,1 / 2,135016,2020-01-17 14:58:51:942
-8.503403,-11.702286,-1.900284,-0.820923,-9.659543,1.479765,0.058192,0.337906,-2.360553,2.066345,-1.567749,-0.093185,0,-0.061,46.6202,-12.0575,18.5799,80.3959,149.6284,0,63.76448,59.99963,30.36168,0,NaN,0,100,0,1 / 2,140017,2020-01-17 14:58:56:943
-1.914566,-8.283371,1.270828,-0.644403,-9.645309,1.650199,1.279314,3.731239,0.381652,2.610153,-1.480575,0.051865,0,0.0381,46.9696,-4.4052,10.688,81.6813,151.0373,0,66.47795,59.99963,30.36168,0,NaN,0,100,0,1 / 2,145016,2020-01-17 14:59:01:942
-0.972443,-11.449707,-11.381317,-0.701554,-9.021046,-3.781393,-5.11732,-3.888372,5.809067,3.213089,-2.363327,-0.059814,0,11.0779,45.5277,14.3799,50.305,62.8081,170.8928,0,65.08934,59.99963,30.36168,0,NaN,0,100,0,1 / 2,150016,2020-01-17 14:59:06:942
6.851807,-26.595428,-17.973755,-0.542078,-9.049649,-3.739036,3.191277,-11.413842,-15.07147,-0.349853,0.560654,-0.042938,0,6.9382,45.52,16.0919,18.5057,56.1711,169.0527,0,67.96887,59.99963,30.36168,0,NaN,0,100,0,1 / 2,155016,2020-01-17 14:59:11:942
-3.19426,-4.352096,0.950012,-1.008591,-8.930313,-3.924621,2.207791,-7.835038,1.128791,-3.175293,0.986221,0.148987,0,2.2354,43.718,-15.9103,65.5085,82.1899,101.9381,0,58.56893,59.99963,30.36168,0,NaN,0,100,0,1 / 2,160016,2020-01-17 14:59:16:942
-0.406219,-9.22789,1.737701,-0.928195,-9.611997,1.708322,-0.995307,0.50552,-1.163173,1.295273,-0.435547,0.156082,0,4.3381,47.5204,-7.1075,23.7864,78.4617,157.5791,0,62.01949,59.999146,30.36288,0,NaN,0,55.098,0,1 / 2,165017,2020-01-17 14:59:21:943
-2.963226,-11.171982,-9.863403,-0.607794,-9.152819,-3.467979,2.179018,-9.768711,-10.535055,-0.613861,0.991913,-0.116455,0,6.9397,46.4691,18.0435,21.4216,55.0629,171.5467,0,63.86495,59.999146,30.36288,0,NaN,0,55.098,0,1 / 2,170016,2020-01-17 14:59:26:942
-4.22496,-11.942902,10.480133,-1.344156,-9.711226,-0.23605,2.429551,-6.780352,2.818179,-2.975555,0.672852,0.492523,0,2.887,41.8198,-24.8077,167.4282,73.2228,12.8678,0,63.68082,59.999146,30.36288,0,NaN,0,55.098,0,1 / 2,175016,2020-01-17 14:59:31:942
1.433731,-6.654114,-0.752258,-0.973365,-9.73842,-0.621385,-6.965499,-3.827325,3.949676,3.538712,-2.701004,-0.218887,0,9.1888,46.1197,14.444,45.1004,63.9435,170.0372,0,65.79878,59.999146,30.36288,0,NaN,0,55.098,0,1 / 2,180016,2020-01-17 14:59:36:942
-3.249328,-7.812912,-10.026199,-0.616277,-9.031059,-3.77234,2.480278,7.273356,7.340746,1.722961,1.187027,0.278046,0,7.6889,46.3989,19.3314,64.1242,64.2263,167.0161,0,55.81256,59.999226,30.362717,0,NaN,0,50.035,0,1 / 2,185016,2020-01-17 14:59:41:942
2.761322,-20.915176,-1.059921,-1.310739,-9.716877,-0.186144,3.337847,-8.692122,3.91031,-2.752212,0.938995,0.409973,0,1.0376,46.2189,-22.5098,174.6249,73.9852,4.6962,0,53.4016,59.999226,30.362717,0,NaN,0,50.035,0,1 / 2,190016,2020-01-17 14:59:46:942
2.311203,-2.120697,-1.141327,-0.397981,-8.89159,-4.117234,-5.199247,-3.117528,11.161495,3.736145,-2.964844,-0.337494,0,11.5372,48.0698,15.8417,58.6821,63.2694,174.7232,0,64.7826,59.999226,30.362717,0,NaN,0,50.035,0,1 / 2,195017,2020-01-17 14:59:51:943
-2.051025,-9.226685,-1.205963,-0.917054,-9.763186,-0.098033,-1.46046,0.590136,-0.784593,1.169205,-0.632095,-0.17131,0,11.3373,48.9197,3.9429,98.2733,80.1641,145.6958,0,69.00797,59.999226,30.362717,0,NaN,0,50.035,0,1 / 2,200016,2020-01-17 14:59:56:942
-0.691132,-9.66124,0.832703,-0.896347,-9.763979,0.177956,-0.438276,-0.093564,-0.073136,-0.293762,0.028732,-0.137573,0,12.3871,47.1207,-10.7071,151.4913,83.3265,66.6057,0,53.16123,59.99928,30.362959,0,NaN,0,100,0,1 / 2,205016,2020-01-17 15:00:01:942
-1.064621,-9.964096,-0.002884,-1.098424,-9.7447,-0.068288,0.058445,-1E-05,0.045102,-0.010925,0.028732,-0.001755,0,10.8383,46.3699,-10.1089,115.8924,83.4868,93.1813,0,71.85272,59.99928,30.362959,0,NaN,0,100,0,2 / 3,210016,2020-01-17 15:00:06:942
-1.227432,-9.947342,0.128799,-1.148204,-9.738533,0.113986,-0.022829,0.003529,0.026006,-0.006317,-0.015121,-0.002106,0,12.1857,46.2738,-9.5062,130.9215,83.2429,83.8358,0,61.0158,59.99928,30.362959,0,NaN,0,100,0,2 / 3,215016,2020-01-17 15:00:11:942
-1.057434,-9.988037,0.114441,-1.077992,-9.746707,0.100043,0.020201,0.001608,0.045292,0.003632,0.012924,0.00322,0,10.0372,46.8201,-10.1578,121.3041,83.6411,85.1223,0,58.07251,59.99928,30.362959,0,NaN,0,100,0,2 / 3,220016,2020-01-17 15:00:16:942
-1.204681,-9.926987,-0.074707,-1.105072,-9.743837,0.082763,-0.043072,0.015122,-0.045518,0.008255,-0.009628,-0.009216,0,11.9385,47.2199,-11.058,123.7979,83.4617,87.5906,0,43.6279,59.999836,30.363895,0,NaN,0,44.274,0,2 / 3,225016,2020-01-17 15:00:21:942
-1.749359,-9.990433,0.338287,-1.605445,-9.657173,0.576143,-0.302655,-0.05078,-0.448617,0.00914,-0.240784,-0.015961,0,19.7388,45.4697,6.3919,218.6337,80.8618,80.8228,0,59.82051,59.999836,30.363895,0,NaN,0,44.274,0,2 / 3,230016,2020-01-17 15:00:26:942
-1.389038,-9.907837,0.022263,-1.45894,-9.696661,-0.129004,0.037018,0.014591,0.060472,-0.033646,0.024109,0.004639,0,16.536,45.9198,-5.3574,148.1984,81.4279,93.322,0,61.62577,59.999836,30.363895,0,NaN,0,44.274,0,2 / 3,235016,2020-01-17 15:00:31:942
-1.565002,-9.921005,-0.290192,-1.520664,-9.686461,-0.174441,-0.037125,0.014459,-0.017028,0.011978,-0.002518,0.014221,0,17.688,47.2199,-5.9082,141.0641,81.1648,96.2672,0,51.0295,59.999836,30.363895,0,NaN,0,44.274,0,2 / 3,240017,2020-01-17 15:00:36:943
-1.701477,-9.894669,-0.217163,-1.604393,-9.672632,-0.191058,0.019303,0.00453,0.10937,0.003281,-0.018326,0.024338,0,15.7883,46.17,-5.2094,137.4425,80.8591,97.5881,0,65.18175,59.99997,30.36423,0,NaN,0,26.576998,0,2 / 3,245016,2020-01-17 15:00:41:942
-1.541061,-9.925797,-0.063934,-1.503667,-9.689165,-0.171629,0.056371,-0.060652,-0.005906,-0.023178,-0.016541,-0.014359,0,18.0374,44.7189,-5.2078,143.3107,80.9119,97.6195,0,62.92197,59.99997,30.36423,0,NaN,0,26.576998,0,2 / 3,250016,2020-01-17 15:00:46:942
-1.605713,-9.903046,-0.130966,-1.546405,-9.682611,-0.161434,-0.015709,0.0089,0.007463,-0.002579,0.00174,-0.000168,0,15.7883,44.8013,-5.7556,136.2985,80.8718,95.8994,0,60.23224,59.99997,30.36423,0,NaN,0,26.576998,0,2 / 3,255016,2020-01-17 15:00:51:942
-9.872894,-11.563431,11.37796,-0.958231,-9.757968,0.18497,-5.538748,-3.959575,-7.241012,-0.942505,-0.522537,0.613251,0,0.4379,42.2211,-24.7574,150.3179,80.7798,21.6781,0,65.08472,59.99997,30.36423,0,NaN,0,26.576998,0,2 / 3,260016,2020-01-17 15:00:56:942
0.510773,-19.993408,-5.950073,-1.395959,-9.408419,-2.388166,1.384176,-4.583228,7.04766,-2.886246,0.232025,0.972611,0,-4.9118,42.1707,-25.3586,143.1137,71.5914,5.5995,0,66.07822,59.99981,30.363174,0,NaN,0,32.589,0,2 / 3,265016,2020-01-17 15:01:01:942
-1.356705,-15.008682,-4.484833,-0.354692,-9.38614,2.818682,-2.215115,-4.545933,-7.003249,-0.235703,-0.815491,0.525192,0,-1.1124,44.9204,-20.607,157.8675,76.7974,8.2225,0,59.9532,59.99981,30.363174,0,NaN,0,32.589,0,2 / 3,270016,2020-01-17 15:01:06:942
-1.561417,-13.154373,-5.343155,-0.087713,-9.340272,2.986974,-6.164607,-2.899394,-6.320064,1.963364,-0.65535,-0.297195,0,4.9881,48.3704,-7.8079,168.0802,84.3633,37.9434,0,68.36731,59.99981,30.363174,0,NaN,0,32.589,0,2 / 3,275016,2020-01-17 15:01:11:942
-8.262787,-12.450485,-1.621368,-0.087187,-9.282335,3.162439,-1.194971,1.684262,-2.068608,1.882752,-0.484726,-0.152313,0,6.5887,48.32,-5.9082,33.9033,77.937,158.4178,0,65.54686,59.99981,30.363174,0,NaN,0,32.589,0,2 / 3,280016,2020-01-17 15:01:16:942
-0.879074,-7.443008,0.113235,-0.44181,-9.636334,1.765287,0.712619,3.31766,-0.325958,1.996735,-1.127975,-0.068329,0,2.6398,47.9202,7.1579,8.37,63.4508,173.5674,0,65.98468,60.00022,30.36407,0,NaN,0,26.214,0,3 / 4,285017,2020-01-17 15:01:21:943
-5.274826,-12.200287,-10.574478,-1.153727,-9.439399,-2.395216,-2.452837,-5.081173,-1.537265,3.127518,-3.396454,-0.443832,0,8.989,47.818,13.4903,41.698,64.1025,173.7805,0,66.94647,60.00022,30.36407,0,NaN,0,26.214,0,3 / 4,290016,2020-01-17 15:01:26:942
-4.924072,0.89241,20.678238,-0.481885,-8.4369,-4.975631,3.30431,7.320769,8.838776,-1.389023,-0.590363,-0.724365,0,10.8871,47.02,14.0915,68.2154,67.5802,166.6721,0,66.48166,60.00022,30.36407,0,NaN,0,26.214,0,3 / 4,295016,2020-01-17 15:01:31:942
5.172272,-26.26622,-18.756668,-0.878968,-8.783794,-4.271155,-1.271354,1.819218,-5.718199,-0.683105,1.109085,-0.066025,0,14.7873,44.22,20.6924,74.4073,58.3218,161.2913,0,64.9755,60.00022,30.36407,0,NaN,0,26.214,0,3 / 4,300017,2020-01-17 15:01:36:943
2.292053,1.194077,4.875305,-0.2209,-8.690198,-4.538946,1.625436,6.859432,9.78775,2.239273,0.877914,0.296524,0,7.2876,48.7701,6.0425,37.7774,74.9013,153.0089,0,58.53662,60.00022,30.36407,0,NaN,0,26.214,0,3 / 4,305016,2020-01-17 15:01:41:942
-3.714996,-7.787765,-0.564316,-1.222003,-9.618532,-1.470012,4.570572,-5.220873,1.891931,-3.367584,0.989594,1.149979,0,0.4883,40.8707,-23.3093,176.9221,75.3189,1.5875,0,69.14585,60.00022,30.36407,0,NaN,0,26.214,0,3 / 4,310016,2020-01-17 15:01:46:942
-0.311645,-9.686371,0.315552,-0.339873,-9.626842,1.838147,-2.220166,-2.15284,-6.322675,1.887558,-1.263611,-0.254761,0,11.087,47.1207,1.9913,123.8696,83.5997,133.2667,0,66.73111,60.00022,30.36407,0,NaN,0,26.214,0,3 / 4,315017,2020-01-17 15:01:51:943
-2.243759,-7.109009,-0.516434,-0.0788,-9.584675,2.073206,3.17386,3.285874,2.159294,2.136475,-2.057419,-0.456619,0,-1.712,44.2688,3.746,351.3157,62.8324,171.4667,0,62.2336,60.00022,30.36407,0,NaN,0,26.214,0,3 / 4,320016,2020-01-17 15:01:56:942
-7.810287,-12.218246,-0.588257,0.141895,-9.291104,3.134589,-1.75044,2.060224,-0.832144,1.222641,-1.14714,-0.151596,0,-3.9627,41.0202,-5.8075,354.8584,80.468,156.2217,0,67.73482,60.00022,30.36407,0,NaN,0,26.214,0,3 / 4,325016,2020-01-17 15:02:01:942
-2.723801,-9.16803,-0.470947,-0.361405,-9.707985,1.339698,-2.285968,1.193893,-2.249802,2.416275,-2.112625,-0.0923,0,-0.4608,42.07,-0.9552,3.0606,80.5685,155.4204,0,61.47629,60.00022,30.36407,0,NaN,0,26.214,0,3 / 4,330017,2020-01-17 15:02:06:943
-0.700699,-7.820099,1.323502,-0.890325,-9.717632,-0.972286,1.329103,3.509277,0.630566,2.887833,-2.607971,-1.083176,0,-0.0687,42.9657,8.4732,350.2608,62.7809,164.0241,0,65.88724,60.00022,30.36407,0,NaN,0,26.214,0,3 / 4,335016,2020-01-17 15:02:11:942
-2.102508,-10.231049,-8.122818,-1.106699,-8.940482,-3.874712,0.21411,1.715223,-5.022854,-0.90947,0.611435,-0.088928,0,9.3872,46.2204,10.791,20.0783,58.7605,159.2009,0,59.99958,60.00022,30.36407,0,NaN,0,26.214,0,3 / 4,340016,2020-01-17 15:02:16:942
0.381485,-2.885635,2.762421,-0.926754,-8.221376,-5.265024,-0.796661,4.23715,6.847023,-0.557754,1.461151,0.14064,0,-10.3622,45.5688,-8.9584,20.5116,82.9154,103.1141,0,60.26555,60.00022,30.36407,0,NaN,0,26.214,0,3 / 4,345016,2020-01-17 15:02:21:942
-5.650711,-11.162399,11.023621,-0.872598,-9.723179,0.932063,-0.9173,-3.286095,7.030036,-3.125763,0.075424,1.053558,0,-13.562,40.921,-22.1085,110.0996,70.7491,5.5463,0,69.92259,60.000446,30.365282,0,NaN,0,23.348,0,3 / 5,350016,2020-01-17 15:02:26:942
0.770538,-7.787765,-0.899506,-1.302002,-9.484608,-2.125414,-0.016752,0.885425,-0.617915,2.209793,-0.163193,-0.655823,0,-2.9129,46.4706,9.4925,342.9516,59.6564,166.6921,0,66.26215,60.000446,30.365282,0,NaN,0,23.348,0,5 / 6,355016,2020-01-17 15:02:31:942
15.151306,-5.044021,-23.354721,-1.185324,-8.761057,-4.243734,6.763017,4.891184,1.850071,1.529617,-0.525207,-1.074646,0,-4.7623,49.7208,4.3411,339.6097,68.9712,170.7402,0,64.47496,60.000698,30.364946,64,NaN,0,21.237999,,12 / 30,360016,2020-01-17 15:02:36:942
4.091293,0.146622,3.936783,-0.248663,-8.810332,-4.299605,-1.184789,-7.713625,6.52521,-1.035889,-1.514297,-0.052185,0,-5.2124,46.3699,16.1423,308.8788,65.1538,173.9516,0,65.21158,60.000774,30.365135,62,NaN,0,19.720999,,13 / 30,365017,2020-01-17 15:02:41:943
-4.70021,-8.113388,-4.814026,-0.570784,-8.977526,-3.904949,0.979814,5.792047,3.077914,-0.54303,0.619766,-0.27713,0,-2.9114,47.0703,13.2904,328.1815,63.1143,162.0901,0,59.7396,60.00079,30.365187,61,NaN,0,18.203999,,15 / 30,370017,2020-01-17 15:02:46:943
-4.173492,-18.263596,-25.181503,-0.651296,-8.945829,-3.964636,1.206893,6.908177,3.938396,-0.183151,0.007065,-0.167221,0,-0.5615,46.6202,14.2914,349.0713,62.227,160.0342,0,65.41323,60.000893,30.365364,55,NaN,9.216,18.203999,56.7,15 / 30,375016,2020-01-17 15:02:51:942
-3.489944,-8.672424,-8.677078,-0.357111,-9.023376,-3.823811,2.799587,-11.50287,-14.336755,2.974838,1.556854,0.397354,0,-3.9108,45.1706,15.242,329.2732,57.7238,166.3185,0,66.19966,60.00097,30.36518,51,NaN,6.048,19.720999,341.4,17 / 30,380016,2020-01-17 15:02:56:942
-2.197082,-6.578705,-4.758957,-0.298915,-9.050139,-3.765106,-0.296546,-1.60104,-2.738446,0.228226,0.198288,-0.376205,0,-3.6621,46.17,18.0923,334.6256,56.5482,176.7841,0,63.41844,60.00103,30.365164,54,NaN,5.328,19.720999,345.3,17 / 30,385016,2020-01-17 15:03:01:942
-2.558609,-18.1391,0.7453,-0.179358,-8.801278,-4.32154,3.720063,-14.438457,-16.948072,-1.243256,0.189758,-0.269485,0,-3.3569,46.8201,16.5344,330.8783,56.8551,166.289,0,68.84369,60.00115,30.365187,61,NaN,5.292,19.720999,343.1,15 / 31,390016,2020-01-17 15:03:06:942
-5.45079,-20.472244,9.97496,-0.215525,-8.741711,-4.439193,5.970391,-13.169843,-11.72334,-1.081345,-0.96817,-0.457153,0,0.09,46.9208,14.0305,352.0758,55.6515,171.3709,0,61.5111,60.001255,30.36527,63,NaN,4.896,19.720999,28.9,17 / 31,395017,2020-01-17 15:03:11:943
0.801666,-8.940582,-6.043457,-0.434418,-8.936325,-4.015441,1.953478,-9.236973,-13.138923,2.359284,1.182053,0.81105,0,-1.4633,48.671,8.9417,350.9623,59.4938,168.4937,0,63.98784,60.00135,30.365484,62,NaN,7.164,18.203999,18.6,21 / 31,400016,2020-01-17 15:03:16:942
4.791596,-13.110077,-10.113602,-0.87164,-9.152719,-3.411504,2.375951,-13.640186,-14.321107,3.029694,1.168747,0.640595,0,0.8377,46.3699,7.8903,346.6434,72.5505,162.2973,0,64.49616,60.001392,30.36559,60,NaN,4.284,16.687,16.3,23 / 31,405017,2020-01-17 15:03:21:943
2.470413,-13.73497,5.94072,-1.406676,-9.581387,1.545535,4.46641,-2.284647,4.405657,-3.241882,0.141647,0.783173,0,1.8875,39.4196,-27.9083,170.5972,70.596,8.632,0,71.0362,60.001434,30.365656,54,NaN,3.42,16.687,40.7,25 / 31,410016,2020-01-17 15:03:26:942
-4.344681,-12.966431,-0.054352,-0.645537,-9.589855,1.946372,0.517025,-2.018643,-4.45329,-1.048859,-0.122009,0.41156,0,-0.412,46.17,-18.4555,148.1552,84.3919,24.1398,0,69.18463,60.001583,30.365799,54,NaN,9.9,15.170001,30.2,25 / 31,415017,2020-01-17 15:03:31:943
-1.13884,-8.245056,-1.068298,-0.065497,-9.706761,1.394588,-0.76694,1.679557,-2.255085,2.121018,0.058731,-0.339981,0,-1.1627,46.3196,8.0414,353.3389,62.4113,175.159,0,65.012,60.001637,30.365831,51,NaN,2.736,15.170001,17.6,22 / 31,420016,2020-01-17 15:03:36:942
0.842361,-5.041626,2.789963,-0.369898,-9.798286,0.164737,-2.177141,-5.325196,0.090135,3.368088,-2.243301,-0.995819,0,-16.8121,38.3698,4.4418,311.03,62.2496,176.9566,0,68.35292,60.00168,30.365875,53,NaN,5.904,16.687,33.8,23 / 31,425016,2020-01-17 15:03:41:942
-2.140808,-14.618423,1.070923,-0.687417,-8.885287,-4.092618,-2.502323,-0.122193,12.783479,0.667465,-1.20343,0.057541,0,-21.1121,42.2195,1.1414,311.6635,65.3443,173.8155,0,61.31201,60.00172,30.365845,53,NaN,3.78,16.687,320.6,23 / 31,430017,2020-01-17 15:03:46:943
7.851395,-1.895645,-2.93338,-0.606703,-8.592353,-4.687619,1.04614,3.933972,7.561877,-0.637833,-1.961182,-0.018616,0,-18.8126,36.969,10.1425,299.2713,61.1845,172.6254,0,64.25333,60.001785,30.365791,51,NaN,4.824,18.203999,326.6,21 / 31,435017,2020-01-17 15:03:51:943
-4.994705,-21.50296,9.387177,-0.42444,-8.835786,-4.233099,6.001079,-11.636598,-9.898844,-0.945877,-0.557693,-0.420227,0,-30.5634,34.1705,1.2405,298.268,64.2897,174.2743,0,65.77875,60.001873,30.365795,48,NaN,5.976,16.687,10.9,21 / 31,440016,2020-01-17 15:03:56:942
-1.239395,-14.598083,-22.173187,-0.937795,-9.051162,-3.656144,-0.489594,1.972032,-4.543028,2.449661,-0.553787,0.919342,0,-19.6121,34.2697,-2.6581,317.5369,67.363,165.6139,0,67.48157,60.001957,30.36597,49,NaN,5.04,16.687,12,20 / 31,445016,2020-01-17 15:04:01:942
2.579361,-1.531723,4.622711,-0.541208,-8.076363,-5.536229,0.312971,7.300967,10.522038,-2.391785,2.889496,1.486771,0,-28.5126,34.6695,9.4421,296.4583,55.4428,174.4167,0,59.18175,60.00201,30.365986,48,NaN,5.832,16.687,5.1,19 / 31,450017,2020-01-17 15:04:06:943
2.098114,-13.721802,-3.420608,-1.264174,-8.753037,-4.237521,-0.776464,-1.836643,3.476349,-3.573532,1.036469,-0.544861,0,-26.0605,39.8727,9.288,301.695,63.1969,163.3886,0,60.43068,60.00212,30.36616,51,NaN,9.072,16.687,42.5,16 / 31,455016,2020-01-17 15:04:11:942
3.383804,-17.636322,-0.492493,-0.424233,-9.67637,1.535669,-3.787287,-4.692037,-7.910532,-2.153351,0.684753,0.669891,0,-13.6261,39.119,-9.1217,84.7703,80.6503,15.443,0,66.43186,60.002262,30.366285,52,NaN,10.548,16.687,26.1,16 / 31,460017,2020-01-17 15:04:16:943
-6.974701,-12.651596,-2.494049,0.188476,-9.279927,3.165091,-5.285642,-3.44798,-6.722066,0.51123,-1.256332,0.034821,0,-19.9127,34.5703,-18.6081,112.3822,71.1361,-3.4078,0,57.28148,60.00236,30.366354,53,NaN,6.192,16.687,12.4,18 / 31,465016,2020-01-17 15:04:21:942
-1.386642,-13.163956,-8.478348,-0.372294,-9.410645,2.73341,-1.742523,2.191957,-1.498479,2.11676,-2.567673,-0.434784,0,-3.7613,29.9698,-22.8577,151.3063,73.662,7.756,0,70.46782,60.00237,30.366293,51,NaN,3.528,15.170001,324.8,19 / 31,470016,2020-01-17 15:04:26:942
-0.670776,-8.021209,0.7453,-0.86595,-9.752602,0.554325,1.675739,4.064839,1.762144,1.912933,-2.332077,-0.350098,0,-13.6124,39.621,-8.3084,50.8494,83.9818,57.3753,0,60.34427,60.0024,30.366354,47,NaN,3.852,15.170001,31.4,21 / 31,475017,2020-01-17 15:04:31:943
-0.62529,-8.795731,0.03183,-0.557646,-9.746555,-0.929549,-4.202726,-3.110376,10.158627,1.497665,-0.803604,-0.54628,0,-16.8625,36.6196,-2.8076,319.6422,83.6538,149.04,0,65.87435,60.00247,30.366472,48,NaN,5.22,13.653,20.6,22 / 31,480017,2020-01-17 15:04:36:943
7.264801,-6.022049,-1.147308,-0.706421,-8.700579,-4.468924,0.998356,-7.866901,7.728795,-1.204376,1.063278,-0.014191,0,-15.7623,36.7203,2.9419,315.6709,62.525,171.0174,0,64.97505,60.00255,30.366503,46,NaN,5.508,13.653,9.7,23 / 31,485016,2020-01-17 15:04:41:942
4.055374,-16.846237,-15.771088,-1.100305,-9.019638,-3.688612,3.347719,8.002166,9.11968,1.449905,1.352142,0.714981,0,-17.511,39.4211,2.3407,315.7253,66.8891,163.3903,0,52.12377,60.00263,30.36655,47,NaN,6.084,13.653,12.7,24 / 31,490016,2020-01-17 15:04:46:942
-2.249756,-1.236038,6.067612,-0.390019,-8.036157,-5.606998,-2.955996,5.00957,7.055258,-0.830292,2.214478,0.087723,0,-17.6117,39.5203,12.9913,305.2372,55.0308,176.021,0,60.26308,60.00269,30.366592,43,NaN,6.66,15.170001,16.6,24 / 31,495016,2020-01-17 15:04:51:942
4.287613,-21.18573,1.935227,-1.390206,-9.706646,0.136934,7.010726,-11.613634,0.295525,-3.188614,1.036652,1.197723,0,-15.9622,42.2699,-1.709,9.3775,81.8105,84.3746,0,61.21802,60.002754,30.366667,41,NaN,9.612,15.170001,19,24 / 31,500017,2020-01-17 15:04:56:943
-2.58493,-14.977554,-2.597,0.005885,-9.262177,3.222177,-2.416176,-1.680633,-8.508593,1.594254,-0.764175,-0.294174,0,-25.3616,34.8694,-16.5573,100.4369,70.8179,-0.1046,0,64.73601,60.00284,30.366764,40,NaN,6.336,16.687,55.7,23 / 31,505016,2020-01-17 15:05:01:942
-2.958435,-7.502853,3.060501,-0.502937,-9.546998,2.184552,-1.713124,1.785818,-1.206617,1.772675,-1.676575,-0.088928,0,-26.5625,43.8187,-9.3079,75.3296,76.7859,12.965,0,65.41977,60.002876,30.366823,44,NaN,1.764,16.687,44,23 / 31,510016,2020-01-17 15:05:06:942
-0.40741,-7.760238,0.600464,-0.687045,-9.738126,0.931265,1.576176,3.960389,-0.801077,2.20961,-1.581772,-0.262039,0,-22.4594,37.3199,-3.5538,54.8458,83.2228,36.4182,0,67.95229,60.002964,30.366838,47,NaN,3.456,15.170001,6.1,23 / 31,515017,2020-01-17 15:05:11:943
-8.261596,-6.881561,26.233978,-1.241818,-8.934969,-3.846375,1.122089,-1.916675,10.342715,0.334747,-1.77565,0.184494,0,-21.2616,38.0707,3.6926,310.4288,65.6597,162.1071,0,64.741,60.003067,30.366873,47,NaN,5.652,15.170001,13.7,23 / 31,520016,2020-01-17 15:05:16:942
13.0923,-9.433777,-17.503296,-0.735765,-8.755368,-4.355752,0.431089,-2.400463,-4.380791,-1.135666,0.42395,-0.018799,0,-18.2617,39.0198,2.3895,315.63,63.2271,170.4122,0,67.05969,60.003155,30.366936,45,NaN,5.976,15.170001,3.5,22 / 31,525016,2020-01-17 15:05:21:942
0.345566,-15.146347,-11.696167,-1.128536,-9.04466,-3.618139,0.263106,4.084823,-1.103716,0.93396,1.987213,0.582184,0,-13.1561,41.0751,3.302,321.5823,67.2645,162.6768,0,62.76393,60.00326,30.366968,44,NaN,5.652,15.170001,3.9,22 / 31,530016,2020-01-17 15:05:26:942
3.994324,-0.29631,4.55568,-0.801038,-8.335027,-5.104511,3.775571,7.514021,10.300396,-1.700607,2.57312,0.552368,0,-4.3121,40.77,9.9915,331.3617,60.9099,161.5076,0,61.27523,60.003323,30.367071,45,NaN,5.22,13.653,30.2,22 / 31,535016,2020-01-17 15:05:31:942
-2.465225,-2.081192,2.762421,-0.902407,-9.447212,-2.471081,5.075846,-10.313517,1.011074,-3.588608,1.144409,-0.507751,0,-9.4131,44.6198,6.3919,312.4517,74.4395,159.9385,0,59.405,60.0034,30.36716,44,NaN,5.976,13.653,7.7,21 / 31,540017,2020-01-17 15:05:36:943
2.655975,-20.676956,3.606384,-0.89047,-9.755008,0.466124,-1.619378,-4.637117,-4.321913,-2.861572,1.974609,0.697586,0,-14.0121,38.0188,-15.5594,66.8157,84.1174,62.3698,0,57.95636,60.003483,30.367207,45,NaN,7.92,15.170001,9.4,21 / 31,545016,2020-01-17 15:05:41:942
-7.044143,-11.799255,-4.348358,-0.092827,-9.260118,3.22676,-6.503077,-3.009811,-6.73176,1.832153,-0.926987,-0.30748,0,-13.562,34.4711,-20.3583,116.6306,70.7814,1.6478,0,70.03499,60.003574,30.367224,46,NaN,7.668,15.170001,13.5,21 / 31,550017,2020-01-17 15:05:46:943
-0.360718,-14.66153,-8.341888,-0.095735,-9.366225,2.904317,-1.585765,1.489321,-1.207066,2.050888,-1.167923,-0.180359,0,-15.6113,35.82,-14.2075,81.5465,84.7338,40.7947,0,59.25289,60.003624,30.3672,51,NaN,3.132,15.170001,330.5,20 / 31,555016,2020-01-17 15:05:51:942
-0.019547,-7.57109,1.261261,-0.611379,-9.780466,0.372931,-3.912209,-4.625674,-0.045845,3.454376,-2.726578,-0.821121,0,-10.9116,40.271,-8.9584,60.4203,85.8121,58.6175,0,67.68697,60.003677,30.36719,52,NaN,3.96,16.687,3.6,20 / 31,560016,2020-01-17 15:05:56:942
-1.081375,-9.235062,0.103668,-0.68581,-9.752953,-0.761555,4.406975,3.509858,4.884395,3.509949,-3.190323,-1.060455,0,-10.6125,39.1693,0.0427,331.0828,64.1254,166.3718,0,64.07152,60.00373,30.367262,51,NaN,5.256,18.203999,29,20 / 31,565016,2020-01-17 15:06:01:942
-4.305176,-7.243088,15.033905,-0.706619,-8.785986,-4.298547,1.056413,-3.072503,-2.349821,-1.030914,0.227936,0.010849,0,-11.763,36.8195,7.9422,310.2108,63.627,170.6649,0,62.11028,60.003826,30.367334,53,NaN,5.148,19.720999,358.4,20 / 31,570016,2020-01-17 15:06:06:942
-1.7733,-8.337234,-3.488846,-1.004221,-9.09053,-3.538954,4.744867,-13.131306,-9.239473,-0.857285,1.228928,-0.324005,0,-9.0118,41.5207,4.4922,326.019,67.9682,164.1581,0,63.95575,60.003952,30.367447,53,NaN,9.864,18.203999,27.5,20 / 31,575017,2020-01-17 15:06:11:943
-1.738586,-3.313003,-0.237518,-1.264013,-8.438808,-4.833131,-2.569472,3.809262,6.024143,1.92395,1.347351,0.710907,0,-7.5623,38.2202,9.2422,323.6413,59.3749,165.3437,0,63.55324,60.004055,30.367582,55,NaN,1.8,18.203999,14.8,20 / 31,580016,2020-01-17 15:06:16:942
-0.476837,-1.744812,3.899674,-1.495281,-8.839636,-3.974338,-2.598029,-0.720108,2.840541,-2.18779,2.661362,0.914719,0,-11.9629,42.8192,7.5409,318.1393,64.3416,159.382,0,69.82366,60.004112,30.367739,50,NaN,5.724,16.687,44.6,20 / 31,585016,2020-01-17 15:06:21:942
-5.66867,-8.466522,-0.870773,-0.758245,-9.476765,-2.405489,5.391347,-9.635328,0.927407,-2.62561,1.92952,1.182282,0,-17.3645,44.0689,-10.0113,104.0483,70.1128,-2.5345,0,61.07189,60.004223,30.367886,52,NaN,8.316,18.203999,34.5,22 / 31,590017,2020-01-17 15:06:26:943
7.106797,-19.78392,-8.544189,-0.726887,-9.733427,0.949961,0.377999,-4.594134,5.584581,-2.806183,1.747177,1.018402,0,-17.6666,43.1183,-10.8139,70.4963,82.994,37.4223,0,68.27556,60.004276,30.367924,53,NaN,0.828,16.687,53,22 / 31,595016,2020-01-17 15:06:31:942
-1.691894,-16.906082,-11.168243,-0.032931,-9.368497,2.898377,-4.602523,-4.636698,-6.57372,-1.781403,0.526917,0.825073,0,-23.3124,35.8704,-17.9092,105.2008,72.8082,0.651,0,66.74764,60.0043,30.367796,52,NaN,7.056,13.653,16.6,23 / 31,600016,2020-01-17 15:06:36:942
0.774124,-12.683914,-6.578552,-0.047688,-9.236703,3.294154,-2.536491,2.178325,-1.551793,1.685684,-0.509933,-0.296661,0,-17.9031,39.5386,-18.7836,104.8835,81.4699,18.7158,0,69.28572,60.004356,30.36777,53,NaN,3.204,15.170001,11.7,24 / 31,605017,2020-01-17 15:06:41:943
-2.359878,-7.445404,1.790375,-0.149229,-9.437658,2.660586,0.065944,2.348769,-1.244891,1.891815,-1.356293,-0.201492,0,-14.1464,44.0903,-12.532,51.7946,85.7221,73.3903,0,68.56012,60.004414,30.36779,52,NaN,2.988,15.170001,21.4,24 / 31,610016,2020-01-17 15:06:46:942
-2.729782,-8.532364,-0.8181,-0.734116,-9.764963,-0.526263,1.698994,3.914941,-0.415387,2.283295,-1.423935,-0.356308,0,-13.1119,42.0197,-11.6577,5.8265,84.7152,125.6354,0,65.76898,60.004463,30.367828,53,NaN,1.584,15.170001,61.3,24 / 31,615017,2020-01-17 15:06:51:943
-0.827591,-4.927902,0.223373,-0.567289,-9.790228,0.000427,-3.463412,-4.926199,6.471533,4.03566,-3.726333,-1.101471,0,-11.6119,39.7705,-1.1063,328.2293,66.3769,170.1425,0,64.774,60.004505,30.367912,52,NaN,2.88,15.170001,41.8,22 / 31,620016,2020-01-17 15:06:56:942
-2.466431,-16.542175,4.573639,-1.292981,-8.749291,-4.236565,0.955257,2.280449,6.936731,3.161072,-2.560394,-1.013397,0,-3.7613,43.6188,4.2419,344.0766,63.1484,163.028,0,60.91429,60.004623,30.36794,53,NaN,8.316,15.170001,355.5,22 / 31,625017,2020-01-17 15:07:01:943
-7.459533,-12.716232,18.935255,-0.553744,-8.807361,-4.277164,-3.169969,-1.314373,14.764037,0.480164,-1.094772,0.065353,0,-2.6123,36.8698,6.4423,341.6223,63.9096,172.6232,0,64.61235,60.004745,30.367994,54,NaN,6.804,15.170001,1,22 / 31,630016,2020-01-17 15:07:06:942
2.463242,-9.413437,-6.177521,-1.046749,-8.743485,-4.315802,1.800862,-6.790807,-5.325052,-0.460464,-1.61319,-0.202728,0,0.7385,39.4211,5.9906,356.4142,67.7464,165.1197,0,62.24355,60.004833,30.368076,55,NaN,5.58,15.170001,13.9,22 / 31,635016,2020-01-17 15:07:11:942
1.990387,-17.55133,-9.187042,-0.520606,-8.793157,-4.310422,4.180214,-14.133987,-15.621006,-0.260727,0.535797,-0.267014,0,-5.8121,42.5705,1.4923,339.4415,68.9045,164.0749,0,62.81546,60.004913,30.368156,54,NaN,4.32,13.653,17,22 / 31,640017,2020-01-17 15:07:16:943
-2.656769,-6.749878,-4.180755,-0.615135,-8.865493,-4.14669,2.46774,-9.435691,-12.351448,2.537369,1.186325,0.771988,0,-2.9617,40.8203,4.7913,344.6174,64.6928,171.5621,0,64.51688,60.005,30.368189,55,NaN,4.86,13.653,3.1,22 / 31,645016,2020-01-17 15:07:21:942
3.505905,-0.260406,5.434357,-0.628781,-8.233077,-5.290695,1.592183,6.9832,4.228118,0.038605,1.601242,0.396652,0,-6.5613,40.3214,8.992,331.7645,57.0916,173.2224,0,63.17151,60.005077,30.368235,54,NaN,4.644,13.653,13.4,22 / 31,650016,2020-01-17 15:07:26:942
3.335922,0.39801,4.807068,-0.534421,-8.076582,-5.536569,-2.554814,2.747662,5.872953,-1.292267,2.057694,0.090576,0,-3.5629,40.5701,3.8925,338.4476,68.3446,162.5514,0,62.41854,60.005142,30.368332,52,NaN,1.656,13.653,27.5,22 / 31,655016,2020-01-17 15:07:31:942
-4.671478,-5.656936,1.106827,-1.301729,-8.2743,-5.100181,-1.842549,-1.019802,2.229777,-2.077194,2.849014,0.920944,0,-10.0128,43.7698,-0.3082,331.5769,73.8185,153.5395,0,68.72913,60.005188,30.368382,57,NaN,4.104,15.170001,31.4,22 / 31,660017,2020-01-17 15:07:36:943
-3.936462,-7.987686,-0.351242,-1.167838,-9.541336,-1.941506,0.142703,-2.654019,2.101797,-3.238144,1.876434,0.086487,0,-5.2124,39.6194,-4.4083,351.617,76.642,148.9726,0,49.42963,60.005264,30.36845,57,NaN,5.904,16.687,34,22 / 31,665016,2020-01-17 15:07:41:942
-4.252502,-6.512863,0.435257,-0.950668,-9.368811,-2.73715,-2.425105,0.147149,3.875357,-2.410446,2.47583,1.689697,0,-9.3124,42.1204,0.0916,330.8296,72.8144,160.8468,0,62.04964,60.005405,30.368515,57,NaN,6.984,15.170001,6.3,21 / 31,670017,2020-01-17 15:07:46:943
-2.236587,-10.287323,0.021057,-1.056202,-9.657499,-1.336979,-3.576153,-3.623109,-1.600782,-3.427765,0.927643,0.856491,0,-16.1621,43.071,-14.3082,352.1336,79.9944,141.6916,0,42.73688,60.005493,30.36857,60,NaN,4.716,15.170001,41.9,21 / 31,675016,2020-01-17 15:07:51:942
0.258179,-15.382172,-12.163025,-0.964144,-9.759138,-0.005262,-6.030151,-3.530825,-6.024728,-1.552185,0.202011,0.586273,0,-23.0637,43.7195,-20.8588,110.4105,72.7626,-2.9948,0,70.43814,60.00555,30.368637,61,NaN,4.428,16.687,2.4,21 / 31,680016,2020-01-17 15:07:56:942
-6.113998,-12.753342,-1.196396,-0.485865,-9.407619,2.725993,-2.285331,-2.618309,-7.826997,1.783875,-0.727432,-0.066559,0,-19.2627,28.421,-23.1064,115.0276,73.5992,10.1059,0,69.66886,60.005623,30.368689,64,NaN,1.26,15.170001,14,21 / 31,685016,2020-01-17 15:08:01:942
-2.313202,-8.755035,1.919663,-0.879783,-9.761786,0.322368,-1.028181,1.348562,-0.966493,1.932648,-2.627334,-0.238068,0,-69.8654,54.3243,-53.0533,54.6241,84.5173,69.8763,0,72.06073,60.005672,30.368717,60,NaN,5.148,16.687,359.9,22 / 31,690017,2020-01-17 15:08:06:943
-11.547638,-10.396255,23.37889,-1.01917,-8.938013,-3.904304,-1.553058,-6.631472,8.154835,-0.035431,-1.789673,0.504608,0,9.584,63.121,4.5929,20.7821,61.5958,172.8816,0,61.91335,60.005775,30.368681,61,NaN,5.436,16.687,3,23 / 31,695017,2020-01-17 15:08:11:943
6.019821,-23.874405,-14.59314,-0.693088,-8.928813,-3.995787,2.343848,7.473655,6.944715,2.005264,1.095947,0.646988,0,-1.1612,52.3941,0.2426,358.0808,55.3461,173.6478,0,56.83888,60.005863,30.368748,58,NaN,5.724,15.170001,20.6,23 / 31,700016,2020-01-17 15:08:16:942
2.445282,-1.350952,5.546875,-1.328604,-8.756417,-4.210741,-1.606533,7.05104,9.018553,-2.588684,2.47049,1.659699,0,-4.715,39.3188,-0.6104,347.2572,63.2407,162.4881,0,55.14061,60.005928,30.36883,61,NaN,4.392,15.170001,40.6,23 / 31,705016,2020-01-17 15:08:21:942
-5.504669,-8.83165,-1.23111,-0.776429,-9.480928,-2.383179,-2.22811,-1.055166,2.55589,-2.461563,2.132095,1.191162,0,-7.1121,40.5701,-13.2584,353.8823,75.1915,161.9546,0,58.19889,60.006,30.368921,60,NaN,4.464,15.170001,42.1,23 / 31,710016,2020-01-17 15:08:26:942
-0.898224,-13.051422,12.455353,-0.772345,-9.721213,1.035311,-7.604262,-3.05887,-4.550144,-0.823196,-0.179718,0.325455,0,-13.8626,31.4194,-27.359,140.7228,71.1285,-1.9843,0,57.53215,60.006058,30.368952,57,NaN,2.52,15.170001,22.4,23 / 31,715016,2020-01-17 15:08:31:942
-2.525085,-7.701584,-0.365601,0.171738,-9.321029,3.042915,-3.196027,2.063787,-1.761078,1.169205,-1.107559,-0.180008,0,-11.2625,40.3198,-19.9081,129.3781,81.4435,9.7903,0,67.90035,60.00613,30.368933,55,NaN,5.112,15.170001,359,24 / 30,720016,2020-01-17 15:08:36:942
-0.62648,-7.426239,1.755661,-0.760727,-9.726063,-0.997699,-4.062247,-3.149635,10.190202,3.998901,-4.014831,-0.874023,0,-3.862,44.4199,-6.9565,4.486,82.6496,142.6751,0,60.49965,60.006207,30.368937,56,NaN,5.148,15.170001,10.7,24 / 30,725017,2020-01-17 15:08:41:943
2.55661,-14.796799,-8.916489,-0.501264,-8.789968,-4.319213,0.777459,-2.193658,-1.530398,0.009491,-2.093277,0.457016,0,0.9384,41.7709,2.9922,2.3396,63.6794,173.3802,0,61.55869,60.00628,30.368975,55,NaN,6.084,15.170001,2.3,24 / 30,730017,2020-01-17 15:08:46:943
6.258042,-29.935333,-18.423874,-0.884581,-9.018764,-3.748305,1.886169,6.7253,5.037097,3.010864,0.430161,0.947571,0,0.3876,43.4189,10.2417,353.7533,56.3782,170.1651,0,63.42807,60.006348,30.369045,50,NaN,5.364,15.170001,13.7,24 / 30,735016,2020-01-17 15:08:51:942
-5.790771,-7.189224,0.516663,-0.975047,-8.318439,-5.101297,-3.195647,4.047523,7.786169,-2.356995,2.70929,0.98877,0,-10.7117,43.0206,-2.2095,331.5028,74.9416,156.6851,0,60.54383,60.006393,30.369135,48,NaN,4.176,13.653,31.6,23 / 30,740017,2020-01-17 15:08:56:943
-3.392975,-13.086136,-6.729385,-0.018035,-9.349977,2.957697,-5.825267,-2.653326,-4.675882,-1.408554,-0.112778,0.659058,0,-16.713,37.8693,-23.4589,121.1715,72.4459,0.3494,0,66.09905,60.006477,30.36916,47,NaN,7.056,13.653,359,23 / 30,745016,2020-01-17 15:09:01:942
-1.524307,-8.874741,-2.812469,-0.561392,-9.7359,1.033188,-1.865479,1.978297,-2.561138,1.71019,-1.546799,-0.198837,0,-9.6115,40.9195,-10.1074,86.0657,83.1134,28.5178,0,67.91281,60.006565,30.369204,51,NaN,3.708,13.653,16.2,23 / 30,750017,2020-01-17 15:09:06:943
1.597733,2.680878,11.637726,-0.989147,-8.690282,-4.435198,1.104642,-3.804573,-1.562749,-0.999496,-0.548996,-0.251739,0,-9.2621,39.3707,5.9418,319.8075,65.9323,173.5685,0,62.16968,60.00663,30.369247,50,NaN,6.732,13.653,4.8,24 / 30,755016,2020-01-17 15:09:11:942
1.099732,-1.179779,3.071274,-0.641098,-8.663466,-4.550134,1.817246,5.886773,8.730722,-0.83403,1.662842,0.432159,0,-4.213,42.3203,4.4418,345.255,60.2673,167.0053,0,64.49187,60.006702,30.369293,49,NaN,4.464,13.653,4.9,24 / 30,760016,2020-01-17 15:09:16:942
-4.458404,-13.598495,-0.195618,-0.128009,-9.344183,2.973256,-3.422176,-3.900703,-4.602936,0.177795,-1.081451,0.162994,0,-20.2621,36.9705,-13.7588,93.5567,72.3339,2.4653,0,63.75348,60.006767,30.36937,51,NaN,2.196,13.653,4.9,24 / 30,765016,2020-01-17 15:09:21:942
-2.686691,-10.062256,-1.749451,-0.699667,-8.923556,-4.006371,2.629675,-8.151997,-6.826104,-0.628952,-0.485077,-0.388443,0,-0.9613,36.5204,-4.3579,0.7125,71.3189,163.2403,0,60.59235,60.006844,30.3694,52,NaN,4.86,13.653,1.9,24 / 30,770017,2020-01-17 15:09:26:943
-2.143204,-13.846298,-4.283706,-0.311079,-9.379555,2.845621,-3.607467,-4.401939,-3.800345,-0.06543,-0.684998,0.094116,0,-15.9119,34.4208,-22.4091,117.0182,73.0282,6.2387,0,60.47495,60.006924,30.36945,51,NaN,4.248,13.653,3.3,23 / 30,775017,2020-01-17 15:09:31:943
-0.176376,-6.729538,-5.891418,-0.867333,-9.206632,-3.264361,3.115789,-11.785229,-11.984276,-0.187592,0.46283,-0.381348,0,-3.0121,38.4186,6.4957,332.047,69.8535,165.1204,0,58.8973,60.006947,30.369495,51,NaN,3.6,13.653,38.7,23 / 30,780016,2020-01-17 15:09:36:942
-0.419388,-10.380692,4.450333,-0.649361,-9.378242,-2.792362,1.796985,1.226388,7.955925,1.680893,-1.576096,-1.437378,0,-5.3619,38.8702,1.0422,342.2341,65.7518,170.0098,0,55.83208,60.007004,30.36954,53,NaN,5.436,13.653,33.4,24 / 30,785016,2020-01-17 15:09:41:942
1.729416,-17.35022,0.935654,-1.480913,-9.399485,-2.372121,-1.017634,-2.800332,6.546967,-3.400238,1.965912,0.253189,0,11.1359,43.9194,-17.0105,175.6923,79.948,35.5144,0,61.31201,60.007072,30.369616,54,NaN,2.628,15.170001,59.7,24 / 30,790017,2020-01-17 15:09:46:943
0.987213,-7.064728,0.965576,-0.972205,-9.624676,-1.609603,-1.851488,-1.262304,-3.132512,1.984497,-0.457748,-0.443481,0,29.1367,57.37,21.6919,148.869,78.9451,148.8679,0,63.55141,60.007095,30.369812,54,NaN,0,13.653,,24 / 30,795017,2020-01-17 15:09:51:943
1.214661,-0.696152,1.272034,-0.621135,-8.080823,-5.521312,2.572102,8.086027,7.016991,2.050354,1.004501,0.367355,0,15.1382,50.2197,19.2413,85.1239,64.9478,163.1049,0,61.89459,60.007122,30.369917,54,NaN,5.148,13.653,62.5,25 / 30,800016,2020-01-17 15:09:56:942
2.045456,-16.172272,0.210205,-1.266454,-9.715183,0.426258,-3.627814,-3.625488,-1.254442,-3.127182,0.917877,0.279648,0,0.8194,50.3601,-30.5481,174.7396,70.1169,3.9134,0,63.57894,60.007156,30.370073,55,NaN,10.908,13.653,61.5,25 / 30,805016,2020-01-17 15:10:01:942
-1.638031,-9.306885,-0.572708,-0.434202,-9.633006,1.785228,-1.991304,0.948898,-2.735253,2.312241,-1.300903,-0.562973,0,9.8694,57.1854,-10.1685,72.8087,82.2299,120.6749,0,64.50621,60.007202,30.37019,55,NaN,5.364,13.653,20.7,25 / 30,810016,2020-01-17 15:10:06:942
0.654419,-5.234359,-0.330887,-0.850334,-8.887725,-4.056558,2.746525,-1.049687,7.409528,-0.789642,-0.424545,-0.565277,0,10.6384,53.5706,8.9417,34.9705,64.7595,170.2322,0,64.89652,60.007256,30.370245,54,NaN,7.128,13.653,23.6,25 / 30,815016,2020-01-17 15:10:11:942
2.323181,-1.250397,2.696579,-1.179529,-8.198191,-5.250595,-0.531543,6.254546,8.812625,0.408249,1.704392,0.574905,0,6.0379,52.42,7.6401,24.9564,72.1981,161.797,0,62.97315,60.00732,30.37035,53,NaN,4.5,13.653,54.9,25 / 30,820017,2020-01-17 15:10:16:943
-4.050186,-2.621078,3.66983,-0.983908,-9.141228,-3.411784,1.645578,-4.224117,1.438562,-2.465835,2.39238,1.657929,0,5.7877,59.9197,-13.4583,92.0252,82.6428,79.9995,0,63.27059,60.00739,30.370438,54,NaN,6.156,15.170001,23.6,25 / 30,825017,2020-01-17 15:10:21:943
3.808777,-13.875031,-2.101395,-0.74152,-9.514927,-2.255374,5.136613,-9.660357,-0.248306,-3.577438,1.883362,-0.560852,0,-9.9121,42.9199,-20.9579,119.2652,79.5756,17.6746,0,67.49236,60.007484,30.370474,51,NaN,6.48,13.653,15.6,25 / 30,830016,2020-01-17 15:10:26:942
-2.690277,-14.286835,12.93898,-1.230292,-9.721976,-0.374084,0.829338,-5.72203,6.364453,-2.768371,2.029648,1.142517,0,-10.7147,46.3669,-29.2099,146.7239,73.6672,-1.9615,0,64.91414,60.00757,30.370543,50,NaN,6.624,15.170001,33.3,25 / 30,835016,2020-01-17 15:10:31:942
0.223465,-15.07692,-6.269699,0.367296,-9.187685,3.409096,-3.456058,-2.037059,-6.955535,-0.39975,-0.491302,0.063049,0,-1.5625,55.571,-34.5077,170.2408,80.23,3.7152,0,66.37609,60.007645,30.370644,53,NaN,3.384,15.170001,40,25 / 31,840016,2020-01-17 15:10:36:942
-4.927658,-11.454483,-4.749389,-0.054043,-9.52472,2.333917,-1.979441,1.585346,-1.855984,1.846893,-1.717422,-0.289017,0,-1.712,52.3697,-15.4083,60.3723,86.2582,100.8269,0,63.33289,60.00772,30.370684,54,NaN,4.356,15.170001,38.9,25 / 31,845017,2020-01-17 15:10:41:943
-2.191086,-8.419846,1.088883,-0.461715,-9.683832,1.476688,-1.169427,1.671955,-1.634934,2.237305,-2.514236,-0.409042,0,1.387,51.8692,-7.0587,22.5954,80.474,137.8749,0,68.33606,60.007797,30.370724,58,NaN,2.808,15.170001,22.8,25 / 30,850016,2020-01-17 15:10:46:942
-8.134704,-14.126419,-19.016434,-0.863665,-9.758757,-0.437186,-2.243699,0.718237,-4.298825,4.089813,-4.575699,-1.301376,0,-0.1129,49.3195,-0.8575,0.5517,62.754,167.036,0,61.31786,60.00787,30.37073,58,NaN,3.456,15.170001,353.9,25 / 30,855016,2020-01-17 15:10:51:942
-1.79245,-16.244095,6.723633,-0.932981,-8.853827,-4.11214,1.84978,3.282312,5.517345,0.21579,-2.334198,0.031082,0,-3.1097,53.3707,-7.0007,359.741,66.6703,173.9863,0,62.61806,60.007965,30.370737,59,NaN,4.5,15.170001,8.6,24 / 30,860017,2020-01-17 15:10:56:943
-6.171448,-12.367874,12.437393,-0.667398,-8.737663,-4.402067,0.8384,0.84249,7.130796,2.939148,-2.461502,-0.771759,0,1.2878,50.7202,8.2397,1.8255,65.4639,176.0149,0,65.06311,60.008064,30.370762,58,NaN,6.372,15.170001,9.5,24 / 30,865016,2020-01-17 15:11:01:942
-5.92485,-20.837372,14.228256,-0.6036,-8.824434,-4.235023,5.440562,-14.026057,-12.775867,-0.955643,-0.273804,-0.387741,0,8.2367,57.0206,7.3914,24.6617,69.5464,160.1227,0,60.2997,60.008152,30.370827,57,NaN,7.704,15.170001,15.4,24 / 30,870016,2020-01-17 15:11:06:942
1.431336,-20.629074,-14.105927,-0.246755,-8.887335,-4.13821,4.404613,-10.908591,-13.753302,0.903244,-0.114548,-0.060516,0,3.4866,55.2689,13.2462,10.3594,67.1907,174.1834,0,66.13487,60.008224,30.37091,53,NaN,5.328,13.653,21.2,25 / 30,875017,2020-01-17 15:11:11:943
-1.13884,-3.47821,-1.180832,-0.677072,-8.619808,-4.627187,0.221402,3.624823,-3.705168,0.996277,1.508377,0.469452,0,4.039,52.4704,13.3926,357.9798,62.1232,161.0698,0,65.27063,60.008305,30.37098,53,NaN,5.724,13.653,19.2,25 / 31,880016,2020-01-17 15:11:16:942
2.106506,-0.904434,5.461884,-1.013033,-8.14876,-5.361143,3.401162,8.322133,9.153327,-1.258346,2.007462,0.074417,0,-0.7629,50.8194,4.7409,349.1137,68.6234,157.8208,0,65.25006,60.008392,30.371029,53,NaN,6.696,13.653,27.1,25 / 31,885016,2020-01-17 15:11:21:942
-2.932098,-3.59552,2.132752,-0.994885,-8.403237,-4.956428,0.294621,-2.550732,2.138751,-2.681015,1.892242,0.69989,0,0.4379,53.1204,-5.3574,7.2123,75.9152,154.0967,0,59.86904,60.00848,30.371107,51,NaN,7.128,13.653,28.2,25 / 31,890016,2020-01-17 15:11:26:942
-4.87738,-6.158523,0.849457,-1.355083,-8.809801,-4.0892,3.66648,-7.374443,2.475801,-3.310409,-0.058624,-0.336075,0,2.6367,53.0197,-16.7099,44.9078,82.0431,127.8307,0,58.82779,60.00854,30.371147,46,NaN,4.788,13.653,14.9,25 / 31,895017,2020-01-17 15:11:31:943
-3.524658,-10.857132,-2.040344,-1.292341,-9.721113,0.014009,4.078037,-9.829387,0.049374,-2.932587,0.957459,1.218155,0,8.7387,55.0201,-8.6594,176.2656,71.9737,-0.1211,0,48.33196,60.008617,30.371216,46,NaN,9.576,15.170001,17.9,25 / 31,900016,2020-01-17 15:11:36:942
7.291138,-13.950439,-15.397598,-0.17311,-9.588946,2.047573,-1.848198,-3.422135,1.800945,-3.318039,0.271072,1.174301,0,6.0883,34.6695,-38.5071,195.4225,72.5912,-1.9416,0,67.57166,60.008682,30.371325,46,NaN,7.776,15.170001,48.4,25 / 31,905016,2020-01-17 15:11:41:942
3.019882,-17.386124,1.084091,-1.577117,-9.667459,0.472584,-4.727722,-1.991771,-7.559208,-2.641235,1.805771,2.239029,0,2.6886,37.8693,-28.9078,204.5471,68.531,-5.5539,0,71.71152,60.008736,30.371462,49,NaN,9.612,13.653,53,25 / 31,910017,2020-01-17 15:11:46:943
4.997498,-22.239166,3.305908,-0.972364,-9.671689,-1.297437,-2.616951,-5.245107,-0.269871,-3.351776,1.179398,1.267685,0,2.9373,34.4696,-26.059,184.8001,75.225,3.5288,0,56.22234,60.008774,30.371641,50,NaN,8.28,13.653,46,25 / 31,915016,2020-01-17 15:11:51:942
4.724564,-23.597885,-0.418274,-0.641138,-9.750008,0.834668,-2.393037,-5.554414,5.925212,-2.987991,0.613205,0.821518,0,3.1372,39.6194,-29.3076,197.1814,70.3232,-2.4436,0,65.16989,60.008842,30.37183,49,NaN,7.272,15.170001,64.1,26 / 31,920017,2020-01-17 15:11:56:943
-2.884216,-13.895386,-2.435394,-0.276212,-9.388166,2.820711,-0.760068,-4.894012,-5.395071,-2.991714,0.781342,0.914734,0,12.9379,45.1202,-18.4082,222.9928,72.1593,3.8934,0,60.56529,60.008797,30.372015,49,NaN,6.876,15.170001,107.1,25 / 31,925017,2020-01-17 15:12:01:943
1.759338,-14.616028,-11.824249,-0.016959,-9.457977,2.591671,-3.599074,-2.287842,-6.908411,1.168152,-1.397125,-0.327545,0,12.4619,46.7743,-19.0292,242.0715,74.2326,2.2718,0,65.26554,60.008743,30.372116,52,NaN,5.904,15.170001,116.1,23 / 30,930016,2020-01-17 15:12:06:942
-4.151947,-13.209442,-5.458069,0.36645,-9.228723,3.29648,-1.691426,0.608269,-5.404547,1.903534,-0.359909,-0.39714,0,11.1526,44.5236,-24.0601,215.2668,78.009,1.8357,0,64.44593,60.008724,30.372301,52,NaN,3.924,15.170001,103.1,23 / 31,935017,2020-01-17 15:12:11:943
-4.880981,-13.635605,-6.475601,0.112465,-9.350851,2.952849,-5.561373,-2.319146,-5.844353,0.944428,-1.540588,-0.138824,0,11.5387,45.8694,-16.8564,181.0668,84.6752,34.3743,0,67.17397,60.008724,30.372435,49,NaN,4.284,15.170001,66.3,23 / 31,940016,2020-01-17 15:12:16:942
-5.550155,-13.207047,-4.842758,0.344074,-9.283047,3.142776,-6.564519,-3.270625,-7.172838,0.338837,-1.407425,0.012985,0,6.7886,48.4695,-18.5577,184.3753,84.2261,16.9142,0,68.76682,60.008755,30.37252,51,NaN,2.268,16.687,36.1,23 / 31,945017,2020-01-17 15:12:21:943
-0.964066,-8.097824,0.733337,0.361069,-9.434833,2.650275,-0.374833,2.165986,-1.805337,1.857376,-2.18454,-0.213028,0,3.6896,47.7203,-16.3055,181.3554,85.9838,12.9604,0,64.99143,60.00881,30.372564,50,NaN,3.312,16.687,29.7,23 / 31,950017,2020-01-17 15:12:26:943
4.049393,-0.867325,7.303025,-0.589696,-9.179369,-3.40027,-1.849178,-2.873608,1.133124,-0.298019,-0.033401,0.198151,0,7.7866,50.2213,3.1418,31.0024,70.9458,174.3513,0,60.88204,60.00881,30.372675,47,NaN,1.548,18.203999,44.9,22 / 31,955016,2020-01-17 15:12:31:942
-1.222641,-12.150009,1.222946,-1.339933,-9.708261,0.353013,-0.272815,-0.81664,-0.084808,0.399017,-0.428268,-0.248367,0,17.3889,45.8679,0.6439,175.7245,80.6999,95.7208,0,53.34586,60.008823,30.372736,47,NaN,1.512,19.720999,79.5,22 / 31,960017,2020-01-17 15:12:36:943
0.413803,-11.978821,-3.918594,-0.073518,-9.566171,2.157168,-0.116505,-2.234301,-5.360963,0.901291,-0.034836,-0.019867,0,8.4869,39.8697,-10.6583,253.9949,77.2853,1.9519,0,46.14476,60.008827,30.372772,47,NaN,1.08,21.237999,100.1,21 / 31,965017,2020-01-17 15:12:41:943
-1.873856,-9.701935,0.195831,-1.166911,-9.736243,-0.119423,2.593355,0.463833,-1.260949,1.076523,-1.21727,-0.097458,0,18.7881,42.1204,10.6918,136.0415,78.2455,147.5619,0,63.55989,60.008827,30.372849,47,NaN,3.06,50.060993,109.3,21 / 31,970017,2020-01-17 15:12:46:943
-0.905411,-7.031204,-3.558273,0.058358,-7.754884,-6.002394,0.177348,-0.506541,-3.515204,-0.003296,-0.020813,-0.063538,0,11.5387,30.7205,29.9912,103.6529,49.7586,179.8561,0,49.70839,60.008827,30.372873,47,NaN,3.06,68.265,109.4,20 / 31,975017,2020-01-17 15:12:51:943
-3.466003,-11.274933,-0.010071,-1.004113,-9.748994,-0.345358,4.057945,-5.242733,5.10687,-3.001831,-0.400925,0.515427,0,5.8884,33.4702,-24.0097,185.9541,75.3629,10.2786,0,48.30228,60.008827,30.372873,47,NaN,3.06,68.265,109.4,16 / 30,980016,2020-01-17 15:12:56:942
1.58815,1.684891,8.356476,1.925742,1.761313,9.453025,0.415636,-1.301628,-0.82349,0.779495,-0.06076,0.221603,18,-27.7618,-12.9303,-44.2093,104.304,-9.6939,-12.3865,5,43.03166,60.008827,30.372873,47,NaN,3.06,68.265,109.4,14 / 31,985017,2020-01-17 15:13:01:943
