ACCELEROMETER_X,ACCELEROMETER_Y,ACCELEROMETER_Z,GRAVITY_X,GRAVITY_Y,GRAVITY_Z,LINEAR_ACCELERATION_X,LINEAR_ACCELERATION_Y,LINEAR_ACCELERATION_Z,GYROSCOPE_X,GYROSCOPE_Y,GYROSCOPE_Z,LIGHT,MAGNETIC_FIELD_X,MAGNETIC_FIELD_Y,MAGNETIC_FIELD_Z,ORIENTATION_Z_azimuth,ORIENTATION_X_pitch,ORIENTATION_Y_roll,PROXIMITY,SOUND_LEVEL,LOCATION_Latitude,LOCATION_Longitude,LOCATION_Altitude,LOCATION_Altitude-google,LOCATION_Speed,LOCATION_Accuracy,LOCATION_ORIENTATION,Satellites_in_range,Time,Date
0.028336,1.915924,8.282257,0.213186,2.311361,9.527987,0.73735,-0.486515,-1.68904,0.105652,-0.090836,0.305084,186,-14.9368,13.4399,-19.6442,40.7593,-13.0118,-0.502,5,52.47866,60.000633,30.358498,0,NaN,0,500,0,0 / 1,13,2020-01-13 14:59:59:860
0.028336,1.915924,8.282257,0.213186,2.311361,9.527987,0.73735,-0.486515,-1.68904,0.105652,-0.090836,0.305084,186,-14.9368,13.4399,-19.6442,40.7593,-13.0118,-0.502,5,52.47866,60.000633,30.358498,0,NaN,0,500,0,0 / 1,2513,2020-01-13 14:59:59:860
-4.271652,-11.239014,-2.744247,-1.922272,-9.406726,1.997189,-1.159891,-0.71592,-2.821081,-0.349747,-0.677963,0.268692,0,-31.2347,20.6909,-4.4449,46.5425,73.5808,43.905,0,58.61539,60.000633,30.358498,0,NaN,0,500,0,0 / 1,5013,2020-01-13 15:00:04:860
-6.32109,-13.521881,-2.934585,-1.119962,-9.439922,2.409135,-2.397336,-3.652024,-5.871349,-3.047165,0.319824,0.726929,0,-26.6846,16.391,-33.9935,114.419,73.2117,20.409,0,61.27329,60.000633,30.358498,0,NaN,0,500,0,0 / 1,10015,2020-01-13 15:00:09:862
-4.916885,-15.287613,2.30513,-1.244118,-8.696082,-4.35898,0.567666,-2.430117,-6.421205,-0.648376,0.21846,-0.01326,0,-0.3845,47.641,4.805,355.622,62.4681,164.0705,0,60.8689,59.998325,30.360167,0,NaN,0,39.57,0,0 / 1,15014,2020-01-13 15:00:14:861
0.85434,-13.797211,9.69603,-1.266493,-9.717995,0.356334,-0.018988,-3.278327,3.027086,-3.410782,0.212585,0.476776,0,-5.0369,43.3868,-15.4007,67.5906,82.2899,74.2858,0,65.15596,59.998325,30.360167,0,NaN,0,39.57,0,0 / 1,20013,2020-01-13 15:00:19:860
2.829544,-9.115356,-1.776977,-0.603469,-9.666755,-1.536251,1.811278,1.476121,0.786528,2.196945,-0.181549,-0.611389,0,2.4155,48.79,13.9557,1.4189,63.3204,172.8099,0,63.92903,59.998325,30.360167,0,NaN,0,39.57,0,0 / 1,25013,2020-01-13 15:00:24:860
-2.637604,-3.955856,2.414063,-1.946276,-8.011242,-5.310591,-0.423794,3.691072,7.383392,-1.605698,2.303711,0.926498,0,10.1135,48.6404,-3.7476,38.2807,70.9419,141.4689,0,65.77504,59.998325,30.360167,0,NaN,0,39.57,0,0 / 1,30014,2020-01-13 15:00:29:861
1.146423,-13.751724,-0.792969,-1.018643,-8.734449,-4.340753,-3.130697,-3.898573,-2.760541,-0.395721,-0.776154,0.41481,0,10.965,39.4928,21.4554,114.6764,62.957,166.7934,0,65.45317,59.998695,30.360767,0,NaN,0,31.302,0,0 / 1,35013,2020-01-13 15:00:34:860
1.382248,-1.863312,2.708557,-0.583317,-8.001576,-5.639583,1.848275,6.071871,8.700003,2.225357,0.469147,0.671356,0,12.2177,36.8958,24.614,146.8046,63.6127,165.1779,0,59.91747,59.998695,30.360767,0,NaN,0,31.302,0,0 / 1,40014,2020-01-13 15:00:39:861
-0.13208,-15.225357,-4.205902,-1.073045,-8.82767,-4.134151,-1.761076,-1.639868,2.660094,-3.076462,0.799194,0.16217,0,11.1145,43.7897,-0.3952,140.9289,81.5765,106.996,0,58.66857,59.998695,30.360767,0,NaN,0,31.302,0,1 / 2,45013,2020-01-13 15:00:44:860
-2.309601,-12.652786,11.678436,-1.316741,-9.717488,0.083736,0.368388,-3.931161,6.774516,-1.351807,0.032028,0.438782,0,7.8156,38.7909,-17.5446,207.5874,72.3084,13.8449,0,57.69739,59.998695,30.360767,0,NaN,0,31.302,0,2 / 3,50014,2020-01-13 15:00:49:861
-0.263763,-12.804825,-2.547912,-0.644285,-9.603488,1.878376,-1.699006,2.34216,0.411279,1.865646,-0.413788,0.147781,0,7.515,43.9911,-6.9443,268.7435,78.3171,18.932,0,58.64434,59.998608,30.361612,0,NaN,0,34.4,0,2 / 3,55014,2020-01-13 15:00:54:861
-2.959625,-6.885162,2.46315,-0.929236,-9.754893,-0.385937,0.578338,1.28353,-1.20725,1.981415,-2.074707,0.023499,0,6.7139,38.4888,18.9621,123.2499,64.9765,168.6732,0,65.1111,59.998608,30.361612,0,NaN,0,34.4,0,2 / 3,60013,2020-01-13 15:00:59:860
-8.858948,-18.799896,6.111908,-1.279329,-8.688054,-4.364794,7.537922,2.575789,3.372282,0.123947,-0.543381,0.052261,0,5.8151,38.0905,24.054,187.9991,64.013,164.1487,0,60.58066,59.998608,30.361612,0,NaN,0,34.4,0,2 / 3,65014,2020-01-13 15:01:04:861
-1.520721,-21.134247,-25.181503,-1.020267,-8.932431,-3.916775,-0.928237,-2.59635,-7.720427,2.766678,-0.269623,0.995377,0,2.3651,38.0905,22.2046,1.7061,54.0128,175.1497,0,65.06555,59.998608,30.361612,0,NaN,0,34.4,0,2 / 3,70014,2020-01-13 15:01:09:861
-4.190246,-8.846008,-2.486862,-1.32994,-9.238127,-3.009762,1.698422,-3.500125,2.252978,-3.08818,-0.023361,0.323029,0,0.7645,45.0912,-3.2944,64.7052,85.8597,65.2146,0,61.39373,59.998608,30.361612,0,NaN,0,34.4,0,3 / 4,75013,2020-01-13 15:01:14:860
-5.881759,-11.721451,-0.754654,-0.549949,-9.451431,2.557025,-2.812633,-1.526165,-5.838917,-0.068863,-0.95459,-0.060837,0,-7.9849,45.2423,-14.3433,71.5904,84.1166,62.9295,0,62.64694,59.998657,30.362274,78,NaN,0,42.475998,,6 / 30,80014,2020-01-13 15:01:19:861
-0.894638,-10.104156,-0.572708,-1.019483,-9.753285,-0.066812,-0.610219,0.076596,0.592781,-0.592438,-0.997375,-0.147293,0,-7.4356,50.6409,-9.3948,33.7656,83.9338,93.2494,0,64.68508,59.998558,30.362038,63,NaN,0,15.170001,,18 / 30,85013,2020-01-13 15:01:24:860
-1.827179,-9.767776,-0.18364,-2.04401,-9.590927,0.080846,0.180475,-0.117366,-0.595555,-0.276947,-0.92067,-0.000824,0,-16.0858,51.2909,0.7553,359.2012,77.96,87.735,0,68.06787,59.99856,30.362013,60,NaN,0,15.170001,,20 / 30,90014,2020-01-13 15:01:29:861
-1.827179,-10.228653,-0.102234,-1.339256,-9.714537,-0.067453,0.113436,-0.550473,-0.490187,0.154831,-0.511078,0.169266,0,-23.1354,48.1415,11.7554,302.7352,82.865,130.7177,0,68.17639,59.998444,30.362007,53,NaN,1.8,15.170001,271.6,20 / 30,95014,2020-01-13 15:01:34:861
-0.499588,-9.985641,-1.375961,-0.86704,-9.460265,-2.433518,0.946495,0.28232,1.95849,0.858795,-0.820709,0.002014,0,-26.6937,45.0882,20.8191,274.83,66.2575,172.0358,0,67.30188,59.99844,30.361841,59,NaN,4.608,15.170001,272.5,21 / 30,100014,2020-01-13 15:01:39:861
-4.071731,-11.836365,0.253296,-1.299584,-9.621073,-1.38435,-0.345778,-1.857972,6.847682,-3.087479,-0.971268,-0.329803,0,-22.0856,49.8901,2.4551,31.1558,76.4527,38.3188,0,67.51007,59.998447,30.361752,63,NaN,3.528,15.170001,293.1,21 / 30,105014,2020-01-13 15:01:44:861
-6.495865,-9.418228,2.009445,-1.004151,-8.984332,-3.800504,-0.345728,-5.684699,-0.305252,-0.287781,0.047821,-0.017151,0,-27.5848,43.7912,23.3063,276.6096,66.3691,165.1998,0,66.82497,59.998455,30.36168,66,NaN,3.168,18.203999,278.9,22 / 31,110013,2020-01-13 15:01:49:860
-1.286087,-9.879105,-0.26265,-1.167203,-9.652131,-1.28234,-0.179512,0.270362,1.001034,0.814941,-0.608368,0.147614,0,-21.8857,41.9403,9.8572,290.8911,77.7729,154.7607,0,67.90612,59.998463,30.361677,60,NaN,1.872,16.687,298.4,23 / 31,115013,2020-01-13 15:01:54:860
-3.31636,-8.359985,-5.850723,-2.537135,-8.696813,-3.754835,-3.022727,1.312797,-1.685133,0.270599,0.796188,0.874466,0,-0.5356,43.5913,6.7551,343.339,63.3918,149.4295,0,68.2773,59.99849,30.361635,61,NaN,0,16.687,,23 / 31,120016,2020-01-13 15:01:59:863
-9.901611,-11.99678,9.415909,-0.900927,-8.700721,-4.433529,-1.71352,-1.191054,6.610305,0.74588,0.398132,-0.598968,0,6.3629,40.6418,21.6034,76.2641,60.5936,167.7586,0,64.07009,59.998516,30.361746,61,NaN,5.04,16.687,99,23 / 31,125014,2020-01-13 15:02:04:861
-3.256515,-9.493637,0.483139,-1.492984,-9.514214,-1.84963,4.263391,-2.862999,0.82362,-2.905319,0.485657,-0.039001,0,4.335,44.8181,-5.2017,27.0523,75.9726,141.0902,0,65.25366,59.99854,30.36192,61,NaN,6.66,15.170001,74.1,23 / 31,130014,2020-01-13 15:02:09:861
-3.114059,-7.876358,-0.612198,-1.206148,-9.717374,0.536894,-1.885276,1.388775,-2.406006,1.986923,-2.368545,-0.03775,0,-10.7346,45.9915,-18.396,347.4628,75.431,151.7466,0,65.22026,59.99858,30.362074,61,NaN,5.904,15.170001,48.3,23 / 31,135014,2020-01-13 15:02:14:861
-5.672256,-8.774185,-11.601593,-1.281455,-8.886992,-3.943301,1.603257,-6.405398,-9.756808,1.524948,0.324615,0.454758,0,-0.0854,49.7406,33.9066,283.0997,54.9731,171.6168,0,64.01358,59.998627,30.362133,60,NaN,4.284,15.170001,24.7,23 / 31,140014,2020-01-13 15:02:19:861
-2.182709,-13.615265,-5.508346,-0.684443,-9.691977,1.329475,-2.17218,-3.26639,-6.004224,-0.249435,-0.887115,0.093811,0,-16.4856,40.1917,-20.5948,106.4509,72.0351,7.4699,0,66.04134,59.998703,30.36223,58,NaN,6.66,15.170001,31.9,24 / 31,145014,2020-01-13 15:02:24:861
0.468872,-10.410614,-1.014435,-1.032149,-8.665956,-4.472836,5.61952,-0.494069,6.189648,1.155838,-0.344727,-0.576233,0,-4.5853,46.4905,17.9047,323.4835,57.8991,172.4605,0,60.65589,59.9988,30.362274,61,NaN,5.22,13.653,16.4,24 / 31,150014,2020-01-13 15:02:29:861
5.642731,-17.96672,-14.055649,-1.199854,-8.510062,-4.723301,1.015731,5.703225,6.865469,1.544128,-0.362289,1.058044,0,-3.3844,45.9915,16.5543,323.6081,52.6066,173.5639,0,61.20941,59.998867,30.362305,63,NaN,3.42,13.653,19.4,24 / 31,155014,2020-01-13 15:02:34:861
0.333588,-15.451614,-4.365112,-1.622741,-9.516527,-1.724182,-1.527502,-3.133608,0.990478,-3.643539,3.908356,-0.090302,0,-7.2357,45.0394,-11.3449,5.9836,76.0285,136.736,0,65.80776,59.99894,30.362358,65,NaN,5.04,15.170001,27.4,24 / 31,160014,2020-01-13 15:02:39:861
-3.167923,-10.926575,-1.717133,-1.667279,-9.629384,-0.815806,2.268404,-6.261851,1.776739,-3.473282,2.193619,0.02652,0,-10.4858,41.89,-18.1473,96.973,74.4918,19.5543,0,65.84333,59.999012,30.36245,64,NaN,6.372,16.687,58.3,24 / 31,165014,2020-01-13 15:02:44:861
-0.456497,-16.831863,4.772354,-0.770765,-9.378862,2.759211,-4.294104,-4.037607,-5.38753,-2.813171,0.810028,0.610458,0,-11.0352,39.241,-23.645,113.6645,73.9139,18.055,0,65.17322,59.99909,30.362526,63,NaN,5.184,16.687,351.2,23 / 31,170013,2020-01-13 15:02:49:860
-7.562484,-12.523499,0.496307,-0.514089,-9.356536,2.891596,-4.986729,-2.382803,-9.084613,-0.477402,-0.745254,0.283966,0,-12.1857,40.2908,-20.343,97.1034,83.0025,39.8248,0,64.01378,59.999157,30.36265,60,NaN,8.1,18.203999,53.2,23 / 31,175014,2020-01-13 15:02:54:861
-1.509949,-7.537582,-1.295746,-0.836167,-9.753177,0.588859,-0.656059,2.289408,-1.489286,2.982056,-0.926361,-0.366745,0,-5.7358,44.9402,6.6055,310.9761,75.1451,163.0129,0,67.97495,59.99921,30.362762,61,NaN,6.912,15.170001,45.5,24 / 31,180014,2020-01-13 15:02:59:861
-5.023437,-10.84996,3.770386,-0.309286,-9.700547,-1.405025,-1.962563,-0.028359,0.371898,3.592438,-0.880539,-0.648849,0,-1.4862,46.3409,16.7557,333.8989,61.6395,171.4297,0,67.32903,59.99927,30.362833,62,NaN,3.528,16.687,29.5,24 / 31,185014,2020-01-13 15:03:04:861
-1.070602,-4.264709,12.670822,-0.29232,-8.687768,-4.539563,4.742046,-11.7272,-11.202171,0.102097,-0.580139,0.251831,0,-3.2364,47.0413,15.0558,326.3926,65.021,174.7627,0,64.81999,59.999313,30.36288,63,NaN,3.852,15.170001,22.7,24 / 31,190014,2020-01-13 15:03:09:861
4.070938,-24.434662,-13.68335,-0.751034,-8.709653,-4.443906,2.089891,6.211716,9.584809,2.443726,0.331024,1.228851,0,-5.2856,44.6915,19.1559,331.7825,54.0021,176.7103,0,66.01293,59.99939,30.362965,66,NaN,7.308,15.170001,35.9,24 / 31,195014,2020-01-13 15:03:14:861
-1.667953,1.401169,4.373719,-0.735123,-8.258602,-5.236934,0.616989,7.301856,9.515911,-1.063293,1.551804,0.402557,0,-8.5846,46.5408,6.7551,312.5232,77.6593,140.0445,0,62.53583,59.999462,30.363068,63,NaN,6.66,15.170001,31.2,24 / 31,200014,2020-01-13 15:03:19:861
-5.469955,-8.477295,-0.086685,-0.833909,-8.709186,-4.430019,-1.321085,5.024819,8.562639,-2.934784,2.957428,0.31485,0,-5.9357,50.6912,-1.4938,352.1562,80.9139,117.6218,0,63.42888,59.99952,30.363169,59,NaN,4.932,13.653,39,24 / 31,205013,2020-01-13 15:03:24:860
-7.242859,-12.105713,2.810303,-0.643842,-9.463816,2.488385,-1.081438,0.214965,-5.366267,0.648941,-1.085434,-0.146591,0,-0.0839,45.1401,-9.642,94.4694,81.8347,45.4185,0,63.84769,59.999546,30.363264,58,NaN,4.752,15.170001,64,24 / 31,210013,2020-01-13 15:03:29:860
-5.750076,-22.800613,-3.391876,-0.291975,-7.887729,-5.819696,3.952996,-2.695498,-6.122005,-1.327301,-0.154388,-0.258606,0,-0.1358,42.1402,23.2056,330.2596,57.1117,174.9147,0,63.72629,59.999565,30.3634,58,NaN,2.448,13.653,63.9,23 / 31,215014,2020-01-13 15:03:34:861
2.083756,0.314209,6.805039,-0.543851,-7.912485,-5.767771,0.88161,7.185051,11.011926,-0.387024,2.340988,0.230881,0,-0.8347,42.392,23.6053,340.9099,65.0123,163.2043,0,63.36582,59.99961,30.363543,60,NaN,7.956,15.170001,39.3,23 / 31,220013,2020-01-13 15:03:39:860
0.037903,-12.118881,-2.741852,-0.642243,-9.035978,-3.756196,-0.119425,-2.818572,1.446489,-3.489792,1.947556,-0.369934,0,-11.586,42.4408,-19.4443,54.2382,83.5997,83.8826,0,66.28021,59.99967,30.36366,64,NaN,3.708,13.653,42.7,23 / 31,225014,2020-01-13 15:03:44:861
-3.019485,-13.032272,-1.069504,-0.454914,-9.419726,2.689271,0.105139,-0.340139,-2.731214,2.139435,-0.422836,-0.048401,0,-6.1859,45.7916,-12.2925,93.0626,83.3099,36.674,0,63.33397,59.999733,30.363758,63,NaN,5.04,15.170001,42.4,22 / 31,230013,2020-01-13 15:03:49:860
-5.066528,-9.254211,-3.282944,-0.797597,-9.72864,0.942236,1.682548,2.525484,-1.865381,3.059815,-1.638657,-0.279922,0,1.5701,46.8597,10.0204,313.756,75.3404,155.017,0,66.73424,59.99977,30.363888,59,NaN,3.384,15.170001,62.3,22 / 31,235014,2020-01-13 15:03:54:861
10.312622,-7.586654,-6.834732,-0.526059,-8.807226,-4.280936,4.195944,0.662323,3.421535,0.473175,-0.075562,-0.262344,0,-1.7349,46.5912,11.6043,337.9274,64.9986,171.2174,0,64.19303,59.999794,30.36399,62,NaN,0,15.170001,,21 / 31,240014,2020-01-13 15:03:59:861
-5.080887,-7.759033,-8.367019,-0.612928,-8.744946,-4.395524,-0.782218,-2.323934,-5.570152,1.861572,-0.363708,1.139008,0,-3.035,44.3909,21.8552,307.6313,59.7275,176.366,0,64.26354,59.999825,30.364012,62,NaN,0,15.170001,,21 / 31,245014,2020-01-13 15:04:04:861
-0.675568,-1.279129,4.081635,-0.72571,-8.906455,-4.039654,-2.621907,-1.802371,2.689016,-3.34526,2.917999,0.277557,0,-4.1855,46.6904,-6.3461,27.0608,83.7455,100.5168,0,66.025,59.999863,30.364119,61,NaN,3.96,15.170001,66,21 / 31,250013,2020-01-13 15:04:09:860
-1.808014,-12.347534,9.910309,-1.13311,-9.612165,1.578836,-4.426203,-5.937356,-8.230794,-1.687897,0.454407,0.67775,0,-9.6848,40.6403,-23.0942,115.2745,72.9076,13.425,0,68.16342,59.999912,30.364285,62,NaN,9.036,15.170001,43.9,20 / 30,255014,2020-01-13 15:04:14:861
1.721039,-12.478012,-3.437363,-0.452004,-9.419477,2.690639,0.07614,-1.530168,-5.712791,2.342362,-0.72377,-0.090836,0,-10.8841,40.1413,-22.4457,43.1737,86.5183,76.0324,0,67.33812,60.00003,30.364382,63,NaN,9.108,15.170001,14.1,20 / 31,260013,2020-01-13 15:04:19:860
-3.881393,-7.494476,-0.42186,-1.241647,-9.654016,-1.195272,1.61373,2.511255,-1.089306,3.483261,-1.050095,-0.095093,0,4.5639,44.4412,15.9058,11.1965,59.7629,167.8869,0,68.52078,60.00013,30.36447,65,NaN,3.888,15.170001,18.7,20 / 31,265013,2020-01-13 15:04:24:860
-7.321869,-17.819473,4.058884,-0.79266,-8.899956,-4.041392,4.943518,-10.317957,-11.135017,0.258881,-0.066864,0.361008,0,4.3137,43.4906,15.7059,15.2113,65.168,168.9031,0,68.48299,60.000164,30.364603,61,NaN,5.22,16.687,107.4,19 / 32,270014,2020-01-13 15:04:29:861
-1.593735,-0.188568,4.352173,-0.774361,-8.194281,-5.331465,-1.862023,6.045717,8.640471,-2.21289,2.704422,1.043839,0,1.3535,41.6779,19.4794,352.9634,74.902,148.4485,0,62.04915,60.00018,30.364756,57,NaN,4.428,15.170001,64.1,20 / 32,275014,2020-01-13 15:04:34:861
4.714981,-20.882858,1.675461,-1.418117,-9.685071,-0.59893,1.794174,-6.89284,3.806028,-2.50264,0.775574,0.595017,0,-3.685,41.3406,-8.4946,132.5678,74.5608,10.5283,0,64.76306,60.00019,30.36485,56,NaN,0,15.170001,,20 / 32,280014,2020-01-13 15:04:39:861
-7.022598,-11.563431,-2.489258,-0.375409,-9.350265,2.932918,-6.43112,-2.008241,-5.890593,2.014969,-0.944992,-0.325012,0,-7.6859,32.7408,-11.6943,89.6174,80.962,35.3543,0,66.10884,60.000183,30.364893,56,NaN,0,15.170001,,21 / 32,285013,2020-01-13 15:04:44:860
-1.39621,-7.786575,-1.239487,-0.584418,-9.495486,-2.380036,-0.663702,-1.630712,2.902419,3.391281,-2.036713,-0.559738,0,-16.2354,41.4413,10.2066,308.2482,60.292,172.4202,0,66.69844,60.000183,30.364939,54,NaN,3.096,16.687,81.6,20 / 32,290013,2020-01-13 15:04:49:860
1.0327,0.186111,13.052704,-0.587642,-8.730526,-4.427524,-1.470694,-5.867913,-1.984858,-0.647476,-1.646118,0.338654,0,-20.3354,44.0414,8.0048,301.8429,65.3875,167.8542,0,66.20171,60.00023,30.364925,53,NaN,2.52,16.687,337.9,20 / 32,295014,2020-01-13 15:04:54:861
-0.134476,-2.436722,3.19458,-0.384511,-8.023439,-5.625563,1.868858,5.990503,9.133142,-2.248047,2.780411,1.017578,0,-25.0351,37.1414,9.0546,295.6888,64.8288,167.511,0,66.91551,60.000282,30.364946,50,NaN,2.664,16.687,341.5,21 / 32,300014,2020-01-13 15:04:59:861
0.847153,-15.167892,6.488999,-0.967642,-9.756859,0.194313,-3.053802,-2.525756,1.970084,-3.547134,0.310593,0.262482,0,-20.3857,38.0936,-17.1921,89.6758,80.8674,27.2355,0,67.73018,60.000362,30.36504,47,NaN,6.3,18.203999,21.9,20 / 32,305014,2020-01-13 15:05:04:861
-3.998718,-12.746155,-0.873169,-1.355331,-9.380929,2.516276,-0.846252,-2.556884,-1.934872,0.130692,-0.733719,0.17601,0,-15.0848,38.1912,-17.6468,79.4322,76.0291,38.3089,0,68.10535,60.00043,30.365126,48,NaN,4.428,15.170001,5.9,19 / 31,310013,2020-01-13 15:05:09:860
-4.606842,-10.361542,-3.731857,-1.034291,-9.633971,-1.512353,2.271755,-3.48191,3.563141,-3.29982,1.638443,-0.15155,0,-17.7856,47.641,1.86,317.3062,79.232,145.632,0,65.94098,60.000507,30.365143,49,NaN,4.932,15.170001,10.2,19 / 32,315014,2020-01-13 15:05:14:861
1.812012,-9.869522,-2.057098,-0.842036,-9.691709,-1.237801,1.22591,-0.099193,-3.014763,1.309769,-0.011475,0.251999,0,4.5639,45.3903,1.8555,3.8324,78.4314,154.8394,0,67.07324,60.000553,30.365185,47,NaN,0,15.170001,,20 / 32,320014,2020-01-13 15:05:19:861
-1.257355,-6.140564,-4.942123,-0.87762,-8.998807,-3.797585,0.515979,-4.694349,-8.501619,1.657745,0.077301,0.29248,0,4.1138,40.0909,24.3546,19.7954,57.3684,171.4544,0,65.30272,60.000565,30.365248,47,NaN,2.7,15.170001,77.9,19 / 32,325014,2020-01-13 15:05:24:861
-0.535507,-10.169998,-9.057755,-0.738148,-8.771769,-4.322222,-0.118531,2.032688,-3.316013,0.791504,-0.082489,0.455826,0,-0.5356,33.4412,22.0551,242.709,58.2099,176.4128,0,67.01717,60.000553,30.36538,47,NaN,2.268,15.170001,121.9,20 / 32,330014,2020-01-13 15:05:29:861
-3.674301,-11.201904,-6.832336,-0.66657,-9.627458,1.743028,-5.310684,-2.936024,-3.954214,-1.75589,0.336166,0.228394,0,7.7148,39.6912,-20.0455,175.7962,83.3074,42.018,0,68.30617,60.00052,30.36548,47,NaN,5.4,16.687,137.4,22 / 32,335014,2020-01-13 15:05:34:861
-5.68782,-8.886703,-2.459335,-0.248091,-9.694583,-1.457362,-1.49908,1.860292,-1.821005,2.391708,-0.656128,0.179749,0,-1.236,29.2404,31.3568,198.4643,63.3892,172.9263,0,67.62822,60.000446,30.365612,48,NaN,3.96,15.170001,156.8,21 / 31,340014,2020-01-13 15:05:39:861
-0.36911,-19.562454,-27.022644,-1.380851,-7.93405,-5.595934,0.09456,0.969759,-5.785852,3.815094,2.126694,-0.127945,0,-11.0352,16.7419,31.5552,232.1837,60.3902,149.6343,0,66.57837,60.00037,30.36557,48,NaN,9.792,15.170001,216,21 / 31,345013,2020-01-13 15:05:44:860
-0.692322,-9.729462,0.214996,-1.585018,-9.619303,1.061663,-0.031171,0.157631,-0.096589,0.12323,0.148499,0.016937,0,-18.4357,20.6421,14.6561,350.9944,79.4519,60.5225,0,68.04045,60.000313,30.365541,45,NaN,2.556,15.170001,191.8,18 / 32,350014,2020-01-13 15:05:49:861
-4.812744,-12.892212,-10.725311,-1.287603,-9.411072,-2.438069,0.524707,0.926461,-1.116464,1.064041,-0.353058,-0.103973,0,-32.3334,5.5878,28.3569,248.9284,65.7211,165.0881,0,67.95497,60.000343,30.365524,45,NaN,3.852,16.687,192,19 / 32,355014,2020-01-13 15:05:54:861
-2.440094,-3.18013,2.647507,0.259306,-8.873815,-4.166361,-5.642779,3.006351,2.773538,0.281601,0.609222,-0.358917,0,-37.3856,-2.8091,2.5558,267.1727,63.6654,176.2296,0,68.62065,60.00034,30.365578,45,NaN,3.276,18.203999,102.4,19 / 32,360014,2020-01-13 15:05:59:861
-1.349533,-9.120148,-3.879089,-0.714082,-9.739611,-0.894684,-0.658795,0.665443,-1.293801,-0.392715,0.080673,-0.404907,0,-12.6358,-39.8102,-21.8933,44.5857,83.5539,112.1251,0,69.06166,60.000317,30.365585,45,NaN,1.548,19.720999,174.3,19 / 32,365013,2020-01-13 15:06:04:860
-1.940903,-10.027542,-0.128571,-0.725974,-9.778595,-0.149828,-1.60855,0.213184,0.496529,-0.071884,-0.905762,0.006989,0,-19.2856,-35.8582,-17.1448,29.0277,86.1225,105.5053,0,68.93036,60.000324,30.365517,46,NaN,0,18.203999,,19 / 32,370014,2020-01-13 15:06:09:861
-0.638458,1.525681,11.579071,0.13798,0.920414,9.762386,-1.605414,-0.015998,-0.294525,-0.34317,0.285034,0.442871,70,-9.7855,24.7406,16.4551,28.5297,-10.2817,-7.3163,5,68.15839,60.000496,30.365562,45,NaN,18.648,16.687,14.6,19 / 32,375014,2020-01-13 15:06:14:861
