ACCELEROMETER_X,ACCELEROMETER_Y,ACCELEROMETER_Z,GRAVITY_X,GRAVITY_Y,GRAVITY_Z,LINEAR_ACCELERATION_X,LINEAR_ACCELERATION_Y,LINEAR_ACCELERATION_Z,GYROSCOPE_X,GYROSCOPE_Y,GYROSCOPE_Z,LIGHT,MAGNETIC_FIELD_X,MAGNETIC_FIELD_Y,MAGNETIC_FIELD_Z,ORIENTATION_Z_azimuth,ORIENTATION_X_pitch,ORIENTATION_Y_roll,PROXIMITY,SOUND_LEVEL,LOCATION_Latitude,LOCATION_Longitude,LOCATION_Altitude,LOCATION_Altitude-google,LOCATION_Speed,LOCATION_Accuracy,LOCATION_ORIENTATION,Satellites_in_range,Time,Date
1.645615,1.512512,9.135788,1.122142,0.957384,9.695081,0.100488,0.211454,-0.011527,-0.344421,0.245255,0.09967,0,-12.9028,-20.8603,-46.5485,156.0198,-8.8071,-8.4712,5,58.87223,60.018555,30.36672,0,NaN,0,400,0,0 / 41,17,2020-01-13 19:25:13:922
1.645615,1.512512,9.135788,1.122142,0.957384,9.695081,0.100488,0.211454,-0.011527,-0.344421,0.245255,0.09967,0,-12.9028,-20.8603,-46.5485,156.0198,-8.8071,-8.4712,5,58.87223,60.018555,30.36672,0,NaN,0,400,0,0 / 41,2517,2020-01-13 19:25:13:922
5.908493,-20.602737,-10.770798,0.139752,-8.797974,-4.329726,0.750376,7.470272,6.271323,2.53624,0.638519,0.543701,0,-6.0211,35.1654,45.4178,190.2787,63.7851,-178.1513,0,62.60768,60.018555,30.36672,0,NaN,0,400,0,2 / 41,5013,2020-01-13 19:25:18:918
-1.919342,-1.269562,1.859802,-0.610755,-8.231101,-5.295879,-2.038523,3.995788,6.30617,-2.194076,2.302109,0.537308,0,2.829,37.117,36.6165,186.5127,57.0704,173.4213,0,62.21833,60.018555,30.36672,0,NaN,0,400,0,3 / 41,10012,2020-01-13 19:25:23:917
2.474014,-14.651947,-2.752624,-0.810564,-9.288913,-3.038004,3.647582,-9.825515,-0.097626,-3.631119,2.715439,-0.345428,0,6.311,46.2982,16.0568,307.0097,84.0712,45.16,0,63.02603,60.019,30.368122,0,NaN,0,600,0,3 / 41,15012,2020-01-13 19:25:28:917
-3.710205,-14.559769,-7.57933,-0.660959,-9.528289,2.223786,-2.815584,-4.877352,-5.764661,-1.232849,0.275436,0.416946,0,2.8793,49.8154,2.2171,349.6018,71.5387,6.1138,0,65.57862,60.019,30.368122,0,NaN,0,600,0,4 / 41,20013,2020-01-13 19:25:33:918
-2.510712,-8.415054,1.030212,-0.540908,-9.766352,0.704407,-0.920009,2.606935,-0.351205,2.443741,-0.64299,0.31308,0,0.0763,48.114,18.9728,329.1257,84.804,37.5203,0,63.27756,60.019,30.368122,0,NaN,0,600,0,4 / 41,25013,2020-01-13 19:25:38:918
-6.249267,-10.922974,3.936783,-0.018619,-8.506087,-4.880217,1.845553,-4.468692,2.06602,-0.853073,0.091507,-1.038559,0,-4.5212,33.5159,34.8175,209.601,67.5201,171.0923,0,65.96103,60.019,30.368122,0,NaN,0,600,0,4 / 41,30012,2020-01-13 19:25:43:917
-0.552261,-7.657287,-1.477707,-0.600257,-9.732029,1.047708,0.300375,2.459718,-2.538936,2.366333,-1.58255,-0.064377,0,-9.5215,43.4647,26.4679,239.5218,78.3753,157.8323,0,65.96091,60.019,30.368122,0,NaN,0,600,0,5 / 41,35013,2020-01-13 19:25:48:918
-3.876602,-12.329575,1.094864,-0.598157,-9.77817,-0.447193,-0.796384,0.465397,-3.633688,2.277023,0.339539,-0.334778,0,-11.8713,38.6154,31.218,235.0559,64.5542,175.0939,0,61.98638,60.019,30.368122,0,NaN,0,600,0,5 / 41,40012,2020-01-13 19:25:53:917
-4.1268,-8.63652,11.302536,-0.065297,-8.756988,-4.413762,2.814947,-0.581616,-1.328476,-0.926224,0.878738,-0.260742,0,-15.3213,33.4137,30.7175,230.7552,63.2481,179.1524,0,63.60465,60.019,30.368122,0,NaN,0,600,0,5 / 41,45012,2020-01-13 19:25:58:917
-1.767319,-2.507355,0.565735,0.293017,-8.668286,-4.576607,2.227915,8.110492,8.879038,1.569687,1.32721,0.906082,0,-16.2216,30.4138,37.767,228.7188,58.6151,176.6614,0,64.53008,60.019,30.368122,0,NaN,0,600,0,5 / 41,50013,2020-01-13 19:26:03:918
-6.856201,-8.152893,1.128372,-0.581345,-8.571368,-4.729068,-4.704752,1.061993,5.679878,-2.61058,1.86908,1.096054,0,-10.6216,34.9655,36.3174,229.5523,60.9311,172.9918,0,64.49861,60.019,30.368122,0,NaN,0,600,0,6 / 41,55012,2020-01-13 19:26:08:917
-4.417694,-12.324783,11.103821,-1.154157,-9.702514,-0.836373,1.45535,-5.479847,7.295884,-2.98201,0.016052,0.603363,0,-7.5211,49.8154,2.5177,22.9559,73.7954,7.4618,0,61.65854,60.019,30.368122,0,NaN,0,600,0,6 / 34,60013,2020-01-13 19:26:13:918
-2.765701,-11.880661,-3.844375,-0.201414,-9.469869,2.539962,-1.983362,1.918599,-1.44458,1.313309,-0.619019,-0.161667,0,-8.2214,47.8149,11.7706,15.92,74.9408,4.534,0,63.91957,60.019,30.368122,0,NaN,0,600,0,6 / 34,65014,2020-01-13 19:26:18:919
-2.380234,-9.13092,-2.065491,-0.378369,-9.799337,-0.014159,-1.221228,1.232727,-4.338994,2.122025,-1.925034,0.190216,0,-10.7864,45.9702,17.0059,304.871,87.7872,92.1431,0,65.36656,60.019,30.368122,0,NaN,0,600,0,7 / 34,70012,2020-01-13 19:26:23:917
-7.272781,-16.229721,5.226059,-0.680649,-9.449188,-2.533759,-4.754035,-2.331859,10.148165,0.268112,-0.955643,0.020844,0,-18.2205,36.4655,35.968,232.9967,60.5345,179.907,0,66.71248,60.018555,30.36672,0,NaN,0,400,0,7 / 34,75013,2020-01-13 19:26:28:918
-6.831054,-9.037537,17.798004,-0.015245,-8.487016,-4.913321,-2.758528,-7.310975,-0.753946,-0.977539,0.854416,-0.452148,0,-15.8722,38.8657,33.1665,238.2406,67.2826,171.4284,0,65.74413,60.018555,30.36672,0,NaN,0,400,0,7 / 34,80013,2020-01-13 19:26:33:918
-2.908157,-9.667221,-10.550537,0.060326,-8.362853,-5.12147,3.114109,8.062343,11.035305,0.579163,1.291519,0.65947,0,-16.6199,31.4652,37.0163,226.8428,58.5146,-179.3251,0,65.545,60.018555,30.36672,0,NaN,0,400,0,7 / 34,85012,2020-01-13 19:26:38:917
-0.903015,-0.690155,3.405258,-0.560006,-8.791109,-4.309662,-3.665176,-1.817722,2.64657,-2.929275,2.426041,0.587204,0,-5.4214,41.716,24.8672,277.0574,81.9367,107.5728,0,64.40706,60.018555,30.36672,0,NaN,0,400,0,7 / 34,90013,2020-01-13 19:26:43:918
-6.962738,-11.800446,10.877563,-1.041134,-9.75031,-0.133708,-3.10296,-2.43404,4.686553,-3.522629,-0.256485,0.73616,0,-5.3223,46.3654,12.0178,303.612,83.8554,97.3182,0,66.0233,60.019,30.368122,0,NaN,0,600,0,7 / 34,95013,2020-01-13 19:26:48:918
-6.16307,-12.425339,-2.996826,-0.292635,-9.367342,2.887499,-6.753014,-2.853272,-3.855137,-0.270035,-0.026031,0.251297,0,-7.7209,50.9644,3.7186,21.5743,73.4326,5.7254,0,65.78612,60.019,30.368122,0,NaN,0,600,0,7 / 34,100012,2020-01-13 19:26:53:917
-3.60965,-7.852417,1.536591,-0.316117,-9.718264,1.275076,1.158297,2.778358,-2.647777,2.26796,-1.901962,0.174942,0,-7.7713,49.3149,11.0672,15.0362,82.3017,13.9241,0,65.0317,60.019,30.368122,0,NaN,0,600,0,7 / 34,105012,2020-01-13 19:26:58:917
-3.577331,-8.713135,-2.551514,-0.287317,-9.790468,-0.484318,0.422291,0.497843,-3.616569,2.596237,0.110687,-0.467758,0,-10.3714,46.8155,22.4167,240.762,86.7081,149.3218,0,63.44733,60.019,30.368122,0,NaN,0,600,0,7 / 34,110013,2020-01-13 19:27:03:918
0.175583,-8.87114,-6.209854,-0.686968,-9.52476,-2.231009,-2.251431,-1.329208,9.167038,0.539398,-1.534088,0.191452,0,-14.6729,35.8643,36.9171,226.243,62.0609,178.2939,0,63.07872,60.019005,30.366526,0,NaN,0,300,0,7 / 34,115013,2020-01-13 19:27:08:918
-2.600494,-18.048126,-4.790085,-0.319571,-8.310253,-5.196919,-1.145249,-6.156152,-3.084991,-0.299499,1.058411,-0.234467,0,-13.6703,30.3146,41.8167,220.9126,61.4049,174.0922,0,65.887,60.019005,30.366526,0,NaN,0,300,0,7 / 34,120012,2020-01-13 19:27:13:917
1.722229,-2.069214,2.454773,-0.382176,-8.884027,-4.135023,-4.298764,-0.797795,2.691631,-2.231888,1.802673,0.610275,0,2.9297,23.967,42.067,181.7978,64.9473,174.7195,0,67.09484,60.019005,30.366526,0,NaN,0,300,0,7 / 34,125012,2020-01-13 19:27:18:917
-2.106094,-13.855881,-0.415878,-0.085308,-9.683806,1.544987,-2.16937,-2.595435,-8.345461,-2.745529,-0.129715,1.365906,0,-45.0714,-52.1362,-1.2817,112.251,71.4324,-1.1989,0,67.01815,60.019005,30.366526,0,NaN,0,300,0,7 / 35,130012,2020-01-13 19:27:23:917
-0.597748,-7.450195,-0.054352,-0.393054,-8.802032,-4.305825,-3.498279,-1.448501,3.201667,-2.632248,1.52536,-0.379166,0,14.4272,141.3361,22.3236,107.4842,79.7836,151.6387,0,66.24706,60.018974,30.368217,61,NaN,5.328,15.170001,156.6,20 / 35,135012,2020-01-13 19:27:28:917
2.91095,-10.348373,-9.9077,-0.029332,-9.018571,-3.851611,3.25829,-11.068267,-14.224232,2.87677,1.218552,0.865952,0,3.1784,57.6645,96.4676,176.3532,56.8679,-179.9385,0,63.67575,60.018963,30.368282,58,NaN,6.696,13.653,152.9,24 / 35,140012,2020-01-13 19:27:33:917
-3.792816,-10.839188,-1.162872,-0.448485,-9.492919,2.419446,-1.715222,-5.063788,-1.408543,0.133881,-0.518539,0.224655,0,-32.6721,55.7159,2.5681,54.5302,75.4682,10.5015,0,62.4959,60.01891,30.368294,52,NaN,8.784,13.653,170,23 / 34,145013,2020-01-13 19:27:38:918
0.320419,-8.544342,-9.500687,0.074522,-8.376214,-5.099399,4.132717,-4.78524,-6.094155,-0.381165,0.930222,0.031662,0,-16.2216,34.2148,41.0675,222.9593,56.8238,-178.5264,0,63.61162,60.0189,30.368181,47,NaN,2.124,13.653,224,24 / 34,150013,2020-01-13 19:27:43:918
4.175095,-14.258102,-2.796921,-1.00554,-9.701187,-1.022861,3.180976,-5.114115,1.894901,-3.915008,1.867661,-0.694488,0,-7.5699,36.8164,35.817,253.3266,81.5896,135.4892,0,63.50839,60.01885,30.368038,48,NaN,8.136,16.687,221.6,25 / 34,155012,2020-01-13 19:27:48:917
-4.394958,-12.146408,-5.060638,-0.665749,-9.568446,2.042548,0.191211,-0.531026,-5.062345,1.787705,-1.276291,-0.154938,0,0.528,47.0642,10.2676,281.7424,82.8874,107.2894,0,67.78528,60.01882,30.367956,49,NaN,3.672,16.687,222.3,25 / 34,160013,2020-01-13 19:27:53:918
4.481552,-6.368011,-5.036697,-0.735235,-8.539309,-4.765503,-2.709227,-2.323329,-4.948537,-0.103134,-1.861298,0.589691,0,-13.0707,37.0651,37.2665,215.6256,63.3025,-177.9971,0,66.79335,60.018753,30.367788,53,NaN,4.86,18.203999,217.5,25 / 34,165013,2020-01-13 19:27:58:918
0.786102,-1.983032,2.721726,-0.24297,-8.04952,-5.596121,-4.905108,-0.317186,5.349103,-1.536804,2.00827,0.339539,0,6.3797,40.2679,28.1631,166.0798,70.2967,174.5125,0,67.97895,60.01869,30.367718,52,NaN,3.312,15.170001,188.7,24 / 34,170013,2020-01-13 19:28:03:918
-3.498321,-13.579346,-4.189148,-0.071264,-9.333016,3.010005,-2.473069,2.528651,-1.480028,1.601822,-0.198242,-0.068115,0,1.7792,49.1653,9.4681,343.3219,83.3645,14.2011,0,68.69507,60.018616,30.367619,53,NaN,6.12,15.170001,229.5,24 / 34,175013,2020-01-13 19:28:08:918
11.357697,-1.706497,-2.907043,-0.085409,-8.362571,-5.12157,-0.915317,-8.870988,-1.525482,-0.008148,-0.274231,-0.291458,0,-7.4203,32.7652,40.6158,205.7524,60.6556,178.686,0,67.60042,60.01856,30.367573,54,NaN,1.98,13.653,208.3,24 / 34,180012,2020-01-13 19:28:13:917
-0.21228,-2.812622,2.636734,-0.432469,-8.496527,-4.877744,-0.653353,5.007113,7.787843,-1.415543,1.562286,0.518677,0,-9.9686,27.066,38.6688,208.7426,60.0435,174.9333,0,67.91635,60.01845,30.367558,54,NaN,7.632,15.170001,196.6,24 / 34,185013,2020-01-13 19:28:18:918
-2.553818,-15.225357,-5.613693,-0.346805,-9.367695,2.880348,-2.923927,-4.575408,-5.98528,-0.002121,-1.192322,0.1082,0,3.0777,50.2136,3.8712,343.5559,78.5909,13.3812,0,67.7986,60.018356,30.367514,53,NaN,7.416,15.170001,202.2,25 / 34,190013,2020-01-13 19:28:23:918
4.318741,-8.392303,-9.653915,-0.193575,-8.328449,-5.173959,0.355351,-0.301063,-4.167951,-0.612503,0.094345,-0.242981,0,-21.2723,39.9658,31.868,263.6638,55.3034,176.7766,0,66.62903,60.018295,30.367393,54,NaN,7.524,15.170001,233,26 / 34,195013,2020-01-13 19:28:28:918
-3.621628,-6.6613,0.335892,-0.421803,-8.322983,-5.169177,1.334242,-3.150357,1.37882,-2.676819,1.302887,1.149841,0,-23.3124,67.1768,33.7448,256.7362,78.5161,156.4104,0,64.9554,60.018303,30.367193,52,NaN,5.508,15.170001,271.3,26 / 34,200012,2020-01-13 19:28:33:917
-6.32109,-13.532654,-2.267792,0.027032,-9.311804,3.075705,-1.1561,-2.454519,-8.028703,1.189911,-0.639969,-0.376511,0,-14.4211,46.315,3.9185,37.695,81.8092,20.6057,0,66.00376,60.018303,30.36703,53,NaN,7.128,15.170001,261.1,27 / 34,205013,2020-01-13 19:28:38:918
-11.976196,-11.61969,20.412476,-0.873622,-9.047754,-3.680396,-4.873987,-2.444132,10.928321,2.859192,-3.793518,-0.967728,0,-17.1616,31.1447,37.8052,232.5353,53.2455,-178.474,0,66.6805,60.018284,30.366898,50,NaN,2.376,15.170001,247.4,28 / 34,210012,2020-01-13 19:28:43:917
2.730194,-1.008591,3.60997,-0.197982,-8.611198,-4.689162,2.23882,7.332049,7.884475,-0.784195,1.858078,0.481384,0,5.629,37.265,31.4178,185.9638,75.4789,165.0213,0,65.43946,60.01821,30.366898,51,NaN,5.436,13.653,178.1,28 / 34,215012,2020-01-13 19:28:48:917
2.00235,-13.513504,9.487732,-0.834392,-9.754061,0.576615,-2.060383,-4.727957,-6.033567,-3.18512,0.962189,0.541748,0,8.6792,45.3644,0.6668,326.6972,73.0188,2.3178,0,66.19257,60.018116,30.366943,48,NaN,5.724,13.653,178.2,28 / 34,220013,2020-01-13 19:28:53:918
-0.047089,-12.245773,-3.417007,-0.422221,-9.629753,1.805542,-1.381238,1.734877,-2.896862,2.066452,-0.372955,-0.058701,0,8.2794,40.2145,24.1165,193.1235,85.6416,150.0417,0,63.20688,60.01802,30.366968,47,NaN,4.392,13.653,183.9,27 / 34,225013,2020-01-13 19:28:58:918
-1.75415,-10.908615,-3.115341,-0.410434,-9.493382,-2.424382,-3.678022,-0.687021,11.422391,3.095154,-3.923111,-0.97731,0,3.5278,35.2158,35.0174,165.6601,61.6676,179.4079,0,65.35601,60.017975,30.366947,47,NaN,3.06,13.653,183.5,27 / 34,230012,2020-01-13 19:29:03:917
1.700684,-18.635895,-20.905457,-0.060992,-8.940819,-4.028453,4.303366,-7.089469,-7.965939,-0.599014,1.048111,-0.366745,0,5.1285,34.8648,34.3674,159.2843,61.8786,-179.8371,0,64.54817,60.017895,30.366997,47,NaN,5.292,13.653,167.3,28 / 34,235013,2020-01-13 19:29:08:918
-0.861114,-3.26033,3.052124,-0.222916,-8.329469,-5.171135,-2.425112,-1.259107,2.361476,-2.722793,1.871384,0.128601,0,12.7792,38.1149,20.0668,139.4132,73.9296,169.4802,0,65.11354,60.01782,30.367043,44,NaN,5.004,15.170001,173.6,29 / 34,240012,2020-01-13 19:29:13:917
-5.727325,-12.566605,7.079163,-1.025082,-9.695951,-1.052674,-1.113337,-5.151303,-4.250357,-3.453384,0.916199,0.459015,0,8.1284,44.2657,-5.4825,317.0313,72.1121,6.4812,0,63.81856,60.017742,30.36711,45,NaN,10.008,15.170001,158.9,27 / 33,245013,2020-01-13 19:29:18:918
-5.867386,-12.235001,0.5849,-0.3986,-9.421771,2.691048,-1.344645,-2.685892,-8.194358,2.019226,-0.925644,0.053513,0,7.3792,44.8151,9.2178,271.3702,86.9935,62.7132,0,64.92035,60.017654,30.367163,46,NaN,6.588,15.170001,168.4,26 / 34,250012,2020-01-13 19:29:23:917
-0.62529,-7.107818,-1.143722,-0.294883,-9.680526,1.539761,-1.232999,2.244764,-2.088299,2.166947,-1.633148,0.0979,0,8.429,44.6655,10.7178,151.0219,81.849,159.5375,0,67.18135,60.017616,30.36716,43,NaN,3.636,15.170001,188.1,24 / 34,255013,2020-01-13 19:29:28:918
-1.129257,-13.051422,-1.717133,-0.167321,-9.649846,-1.738641,5.585359,0.7807,-1.254921,0.416901,0.625031,-0.632523,0,-3.0701,35.3149,33.3664,196.6928,63.7778,177.9047,0,67.60684,60.017563,30.367155,42,NaN,7.956,13.653,186.8,23 / 34,260012,2020-01-13 19:29:33:917
0.175583,-6.172882,-3.545105,0.052267,-8.856944,-4.209775,-0.10157,-2.848883,-7.91951,-0.892487,0.884781,-0.129715,0,0.3296,33.4152,36.2167,177.4842,62.347,-178.8415,0,64.71811,60.01748,30.367146,43,NaN,7.416,13.653,163.7,23 / 34,265013,2020-01-13 19:29:38:918
5.750473,-20.442322,-2.968094,-1.192724,-9.732158,0.181405,5.64034,-8.554317,2.623441,-3.499374,0.219696,0.553467,0,6.1279,43.3151,-2.0325,331.4931,72.2506,9.8947,0,66.13597,60.01739,30.367212,43,NaN,6.12,13.653,174.2,23 / 34,270013,2020-01-13 19:29:43:918
2.841522,-10.719467,-7.082535,-0.658629,-9.39735,2.72514,-1.317311,2.396453,-1.72007,1.060837,-1.101593,-0.356979,0,10.1776,48.2651,13.1699,257.89,84.6129,80.245,0,66.42368,60.01731,30.367245,46,NaN,7.128,15.170001,163.7,24 / 34,275012,2020-01-13 19:29:48:917
-1.190308,-12.512726,-0.537979,-0.197785,-9.785,-0.620528,-1.050442,-0.181237,-4.136869,3.497452,-4.440307,-1.144379,0,12.677,40.1123,19.4748,166.0217,64.1044,177.488,0,66.46591,60.017227,30.36725,52,NaN,6.84,15.170001,193.1,25 / 34,280013,2020-01-13 19:29:53:918
2.226212,-18.878906,-10.527786,-0.347377,-8.683977,-4.542933,-1.649441,-7.209943,6.758224,-0.683884,-1.739334,-0.078766,0,-2.2217,32.814,29.2694,192.4998,57.5534,-179.0245,0,66.20661,60.01719,30.367205,48,NaN,6.228,15.170001,176.8,25 / 34,285013,2020-01-13 19:29:58:918
-0.835968,-2.198501,-0.596649,-0.372635,-8.190696,-5.379965,1.039434,6.865863,9.111833,1.40918,1.343201,0.495773,0,7.6279,36.3678,32.9651,164.5201,68.7171,174.9198,0,66.68737,60.017147,30.36717,40,NaN,6.336,16.687,215.7,26 / 34,290013,2020-01-13 19:30:03:918
-7.611557,-8.134933,-1.233505,-0.146668,-9.124484,-3.590636,2.653224,-4.134004,2.14299,-2.506195,1.937973,1.539017,0,14.5248,44.0765,8.3618,228.398,85.8474,77.8177,0,65.78887,60.017075,30.367117,44,NaN,4.968,16.687,188.7,26 / 34,295012,2020-01-13 19:30:08:917
2.295639,-16.165085,5.548081,-0.367358,-9.442039,2.62361,-4.952029,-3.907471,-4.375973,-3.431198,1.028229,0.35463,0,10.7788,44.9097,-2.6566,312.5571,72.482,4.651,0,66.12396,60.01695,30.36719,42,NaN,9.108,16.687,174.6,23 / 34,300012,2020-01-13 19:30:13:917
2.298035,-12.586945,-6.577362,-0.196171,-9.352577,2.942991,-0.439079,-0.16105,-4.237659,0.148621,-1.335586,-0.090485,0,5.0781,45.0653,14.0686,317.6205,86.5853,29.6608,0,66.70737,60.01686,30.36725,39,NaN,4.788,16.687,178.9,22 / 34,305013,2020-01-13 19:30:18:918
0.221069,-6.110626,0.875793,-0.329244,-9.796608,0.297411,-1.225601,1.748457,-2.348137,3.833908,-2.909881,-0.980148,0,-2.5223,34.1644,34.2682,195.6636,70.2548,175.4932,0,66.62917,60.0168,30.36723,44,NaN,3.492,15.170001,230.8,22 / 34,310012,2020-01-13 19:30:23:917
-2.987167,-17.824265,-6.667145,-0.343895,-8.773865,-4.367085,3.690974,-0.066143,7.255314,0.215561,-1.122177,0.023499,0,1.7776,37.9654,33.667,167.5395,60.4065,-179.3569,0,66.7018,60.016727,30.367342,48,NaN,2.808,13.653,184.4,23 / 34,315012,2020-01-13 19:30:28:917
-1.300445,-2.661789,0.131195,-0.06201,-8.277993,-5.257506,2.156366,7.528146,9.160839,0.86058,1.354553,0.781433,0,6.1295,36.4151,38.1165,176.2558,59.6175,172.4865,0,66.96407,60.01665,30.367393,47,NaN,3.636,13.653,185.1,24 / 34,320012,2020-01-13 19:30:33:917
0.480835,-12.250565,-3.834793,-0.755711,-9.603042,-1.838716,4.195056,-8.252155,2.513916,-3.458374,0.96521,-0.177826,0,9.5795,47.3648,-0.1328,308.7296,77.0799,16.9145,0,63.31932,60.016563,30.367456,48,NaN,5.076,13.653,161.8,25 / 34,325013,2020-01-13 19:30:38:918
-3.649155,-13.499146,-1.07428,-0.161899,-9.28662,3.146883,-6.714501,-3.080107,-3.895258,0.033035,-0.587601,0.126297,0,9.2285,48.0652,7.0175,330.7913,76.032,6.315,0,64.8745,60.016457,30.367485,48,NaN,7.488,13.653,171.6,25 / 34,330013,2020-01-13 19:30:43:918
-0.260162,-7.912262,-2.012817,-0.178637,-9.6498,1.737766,-1.075188,2.05168,-2.953865,2.03006,-1.126099,-0.116409,0,6.0287,43.0145,23.8678,114.8161,63.9437,179.6454,0,66.64708,60.016388,30.367462,46,NaN,3.24,13.653,200.6,25 / 34,335013,2020-01-13 19:30:48:918
12.77626,-6.728332,-13.040512,-0.436112,-8.631544,-4.634289,-1.493565,-6.127667,4.849206,1.350067,-0.855698,-0.703537,0,2.33,39.6149,34.0164,185.6534,67.7519,173.9109,0,65.06655,60.016327,30.367449,48,NaN,1.872,15.170001,196.4,23 / 33,340013,2020-01-13 19:30:53:918
-3.166733,-14.157547,-20.498444,-0.300234,-9.051049,-3.762811,-1.155548,2.304243,-3.375903,-0.692413,0.301361,-0.34845,0,0.0778,36.5128,32.3715,169.6137,55.0985,-177.8102,0,67.46291,60.01625,30.367496,54,NaN,8.712,15.170001,176.5,22 / 34,345013,2020-01-13 19:30:58:918
-2.438888,-10.752991,-1.395111,-0.216183,-8.964918,-3.969118,0.343047,-2.060564,1.916034,-3.427643,2.17482,-0.089584,0,11.4273,47.4655,6.8161,198.4584,84.1421,110.7955,0,67.84743,60.01616,30.367538,50,NaN,4.86,15.170001,177.8,23 / 34,350012,2020-01-13 19:31:03:917
-1.85231,-12.504349,-8.024658,-0.206729,-9.34837,2.95561,-6.140492,-2.751114,-3.955872,-0.171127,-0.802078,0.078003,0,10.5789,50.9644,9.317,210.3879,87.7784,102.9561,0,68.04007,60.016075,30.367565,51,NaN,5.148,15.170001,179,24 / 34,355014,2020-01-13 19:31:08:919
-3.214615,-7.811706,0.90332,-0.148679,-9.794345,-0.46807,-0.803902,0.186726,-3.12735,2.533035,0.033096,-0.500778,0,2.9266,34.3643,37.0178,178.0884,65.6439,176.3841,0,67.32965,60.016006,30.367558,51,NaN,5.148,16.687,196.1,24 / 34,360016,2020-01-13 19:31:13:921
-3.57135,-5.288223,-5.927337,0.069905,-8.653687,-4.612938,-1.074561,-3.715146,-2.742396,-0.471893,0.868973,-0.42569,0,4.5288,31.3156,38.768,161.0859,56.2173,-179.7157,0,66.1944,60.015953,30.367569,51,NaN,3.888,13.653,226,25 / 34,365012,2020-01-13 19:31:18:917
2.755325,-1.06485,2.449982,-0.447531,-8.445094,-4.964925,-4.286329,1.299614,6.830076,-0.952499,2.073258,0.314316,0,14.8285,40.7654,21.2646,154.4892,77.7706,161.0967,0,66.37293,60.015903,30.36759,46,NaN,2.484,15.170001,226.1,25 / 34,370013,2020-01-13 19:31:23:918
3.859055,-18.77237,2.433212,-0.9632,-9.672715,-1.296613,3.387627,-7.120091,4.214803,-3.504883,1.997269,-0.614761,0,12.3795,49.614,-3.7827,303.8353,74.9505,7.6188,0,65.25662,60.015842,30.367567,44,NaN,4.464,15.170001,186.8,25 / 34,375013,2020-01-13 19:31:28:918
-2.768097,-13.536255,-4.365112,-0.336166,-9.523583,2.314895,-4.372766,-4.877038,-5.143094,-0.921967,0.437714,0.533768,0,8.3298,49.4156,-6.7841,334.3537,71.6678,-0.6601,0,64.59774,60.015736,30.36764,45,NaN,7.164,15.170001,171.5,25 / 34,380012,2020-01-13 19:31:33:917
-7.224899,-11.905792,0.857834,-0.076611,-9.28812,3.145685,-1.598376,-2.541414,-8.456195,0.936218,-0.589371,-0.357864,0,5.9784,47.7646,13.3682,164.15,82.4693,164.0484,0,66.43157,60.01564,30.367647,44,NaN,5.76,15.170001,195.3,24 / 34,385013,2020-01-13 19:31:38:918
-4.313553,-7.063522,-0.59903,0.202043,-9.73727,-1.146794,-1.389976,-1.491438,-0.257087,3.31424,-1.324234,-0.859787,0,4.8798,47.1664,17.8162,176.5818,62.4578,178.0931,0,66.45896,60.01557,30.367659,45,NaN,1.476,15.170001,183.6,26 / 34,390013,2020-01-13 19:31:43:918
8.751602,-6.38237,-1.683609,-0.444126,-8.698178,-4.507197,-2.580125,-2.486298,7.839999,1.904541,-1.53746,-0.975723,0,0.8896,36.8759,33.7631,182.864,66.3328,176.9423,0,66.05492,60.015503,30.36771,47,NaN,5.472,13.653,169.4,26 / 34,395013,2020-01-13 19:31:48:918
-2.869842,-10.608139,-13.378082,-0.672866,-9.134471,-3.504152,0.917841,-3.696578,-8.579532,1.832092,0.968933,1.054855,0,-1.7197,31.1157,32.3654,204.3896,68.6631,169.1304,0,67.45154,60.01541,30.367739,45,NaN,8.1,13.653,169.2,27 / 34,400013,2020-01-13 19:31:53:918
3.028275,0.211258,3.765595,0.063665,-8.23694,-5.321575,0.882554,6.901248,9.774642,-0.045074,1.701126,0.346451,0,8.7799,39.6149,19.6671,238.3937,83.2587,108.1158,0,66.6444,60.01534,30.367725,46,NaN,5.4,13.653,178.2,27 / 34,405012,2020-01-13 19:31:58:917
1.442108,-12.800034,-2.702347,-1.058316,-9.749377,-0.000569,0.035478,-3.33889,5.170785,-3.722198,1.64325,-0.455154,0,6.778,43.6157,-0.7324,330.7301,72.1174,0.8403,0,67.57112,60.01526,30.367708,44,NaN,5.94,13.653,183.1,25 / 33,410015,2020-01-13 19:32:03:920
4.772446,-19.069244,2.556519,-0.280165,-9.480551,2.492201,-4.828043,-4.110962,-4.598724,-3.571991,0.817841,0.661606,0,7.6279,47.3648,-1.8326,327.6774,71.8527,1.264,0,68.42023,60.01514,30.367691,46,NaN,9.072,15.170001,178.7,26 / 34,415013,2020-01-13 19:32:08:918
-6.770004,-11.853119,-2.351593,-0.019769,-9.25455,3.243964,-5.021217,-2.454143,-8.016466,2.412125,-0.709747,-0.100601,0,7.0282,47.9157,4.3213,326.8603,78.9092,11.412,0,67.53881,60.015038,30.367691,45,NaN,8.46,13.653,177.9,27 / 34,420013,2020-01-13 19:32:13:918
-0.748581,-7.930221,-3.141678,-0.219604,-9.604379,1.969283,-0.677291,2.159628,-2.037385,2.603348,-1.914566,0.191818,0,5.9296,46.4157,11.6669,161.5659,86.4518,167.9882,0,66.86315,60.01495,30.367725,48,NaN,6.336,13.653,190.2,26 / 34,425013,2020-01-13 19:32:18:918
3.430496,-2.396026,7.943482,-0.608772,-9.370659,-2.826754,0.36855,-1.49131,5.39701,0.054886,-1.825073,-0.015915,0,3.7292,41.7648,34.4666,184.0667,66.9924,171.4955,0,66.433,60.0149,30.36777,52,NaN,4.5,13.653,169.2,27 / 34,430012,2020-01-13 19:32:23:917
1.531891,-1.378494,1.825089,0.03684,-8.471404,-4.940075,2.510215,7.465854,9.389698,0.777298,1.301834,0.774155,0,-3.1708,44.6167,35.7147,213.2025,61.4333,174.6282,0,65.97237,60.01484,30.36783,51,NaN,5.544,15.170001,161.3,28 / 34,435013,2020-01-13 19:32:28:918
-1.967239,-13.903763,9.000519,-0.876143,-9.765749,0.181432,-2.310824,-2.47762,3.556163,-3.23146,0.000427,0.668167,0,10.9283,48.6649,-2.2827,319.0148,72.1633,3.2869,0,64.89839,60.01477,30.36783,51,NaN,5.976,15.170001,178.1,28 / 34,440013,2020-01-13 19:32:33:918
-1.12088,-7.773407,-4.010773,-0.371378,-9.768531,0.779927,-2.608969,2.229267,-2.070753,2.408219,-1.961075,0.149551,0,5.1804,32.4142,34.5169,172.7618,61.1707,175.0608,0,66.1819,60.014683,30.367853,54,NaN,5.076,15.170001,175.4,26 / 34,445013,2020-01-13 19:32:38:918
-1.592544,-10.208313,6.545258,-0.165004,-8.921195,-4.068836,-0.759948,-4.950275,2.768756,-0.749756,-1.043701,-0.302826,0,5.9784,32.164,40.7181,164.1239,64.2678,-179.2557,0,66.06316,60.01463,30.367882,54,NaN,2.016,15.170001,186.6,26 / 35,450014,2020-01-13 19:32:43:919
-4.56015,-6.807342,-0.320114,0.124524,-8.974317,-3.951775,4.76844,-8.469735,1.300795,-3.654373,1.655136,-0.39035,0,12.9791,45.2652,-0.1343,312.1559,73.1198,6.3168,0,66.63422,60.01456,30.367828,49,NaN,3.456,15.170001,202.2,24 / 35,455013,2020-01-13 19:32:48:918
-5.420868,-12.5271,-0.193222,-0.36048,-9.371073,2.867652,-2.14435,-2.835996,-8.452976,0.850281,-0.671402,-0.107346,0,6.0776,42.7643,11.9202,299.0425,86.2883,44.8091,0,67.59119,60.014454,30.36783,48,NaN,8.388,15.170001,187.9,25 / 35,460012,2020-01-13 19:32:53:917
0.193527,-12.993958,1.037399,-0.53074,-9.50139,-2.369025,-1.066889,-1.080659,-3.392724,2.879074,-0.821243,-0.567017,0,3.9795,29.715,34.668,170.4429,62.5093,178.2216,0,68.91672,60.01439,30.367788,44,NaN,6.876,15.170001,234.5,22 / 35,465013,2020-01-13 19:32:58:918
3.036652,-10.688339,-1.720718,-0.286132,-9.141999,-3.537281,5.223951,-7.250308,-7.973172,2.028275,-0.082306,0.768295,0,11.5784,28.4149,33.017,129.5979,55.2461,-178.1248,0,69.1098,60.01435,30.36776,45,NaN,5.976,15.170001,168.4,22 / 36,470014,2020-01-13 19:33:03:919
-2.549026,-10.202316,-0.482925,-0.415242,-9.514079,-2.341,0.52435,-1.655548,1.774699,-3.012192,1.475998,-0.394257,0,15.9287,41.6657,0.3174,282.4813,80.3293,13.222,0,65.38315,60.014275,30.367811,43,NaN,5.4,16.687,168.2,22 / 36,475013,2020-01-13 19:33:08:918
-5.308349,-11.420975,-0.50087,0.127724,-9.319765,3.048942,-5.785734,-2.415167,-4.236516,-0.200958,-0.483551,-0.011826,0,11.4273,41.3651,12.3169,323.1119,82.824,5.0785,0,62.09856,60.014168,30.367859,44,NaN,5.976,15.170001,194.5,22 / 36,480013,2020-01-13 19:33:13:918
-0.918579,-8.676025,-2.946548,0.006708,-9.790418,-0.563973,0.171925,-0.985128,6.782032,3.064072,-1.602798,-0.949432,0,9.4284,31.4652,27.6672,151.9593,67.4578,177.2401,0,58.94744,60.01411,30.367828,45,NaN,4.608,16.687,212.1,22 / 36,485013,2020-01-13 19:33:18:918
3.687866,-22.721603,-16.300217,-0.294153,-8.961781,-3.971189,-0.350433,2.799358,-2.701669,-0.547882,0.267105,-0.187424,0,5.3787,24.9146,29.9667,170.6085,59.3052,174.6924,0,61.3011,60.01406,30.3678,46,NaN,3.816,15.170001,181.6,22 / 36,490013,2020-01-13 19:33:23:918
6.222138,-15.556961,0.910507,-0.598614,-9.77969,0.411981,2.597212,-7.827651,3.969077,-3.254898,0.746109,0.161636,0,7.5287,40.9149,-5.5832,310.0562,72.1845,2.6516,0,61.10224,60.013992,30.367872,42,NaN,5.148,15.170001,167.8,21 / 36,495013,2020-01-13 19:33:28:918
0.952499,-10.881073,-0.651703,-0.150005,-9.71818,1.305706,-2.965356,1.891492,-1.892864,1.882523,-0.668381,0.069672,0,2.8244,39.3097,30.9769,184.2638,83.411,170.8488,0,54.04373,60.0139,30.367964,45,NaN,6.948,13.653,182,23 / 36,500012,2020-01-13 19:33:33:917
-1.289673,-4.846496,-8.463989,0.241261,-8.799459,-4.322235,5.169488,-8.728331,-9.693201,-0.420944,0.056717,-0.466339,0,7.6279,31.6101,44.6213,155.7072,58.3183,-177.9817,0,62.52495,60.013844,30.36798,48,NaN,4.248,13.653,176.4,23 / 36,505013,2020-01-13 19:33:38:918
-7.143493,-9.399063,1.252884,-0.023109,-8.989776,-3.918389,0.790403,-2.126152,1.434243,-2.415817,1.953949,1.458405,0,15.5304,46.521,3.4866,185.5869,84.8735,96.4942,0,64.57228,60.013767,30.368006,46,NaN,4.968,13.653,177,24 / 35,510013,2020-01-13 19:33:43:918
-2.843506,-14.885376,-8.485535,-0.236591,-9.353411,2.937365,-5.415384,-3.092799,-3.772683,1.10434,-0.293945,-0.130249,0,14.2517,46.5714,7.7515,272.3958,87.3146,35.1971,0,65.70319,60.01368,30.368002,44,NaN,4.752,13.653,189.6,25 / 35,515013,2020-01-13 19:33:48:918
-0.329605,-8.094223,-0.035202,-0.184664,-9.725397,1.246172,-1.315766,2.31695,-1.925515,1.850205,-1.458633,0.496841,0,9.1293,37.6144,27.8168,148.3593,63.1707,172.633,0,64.25557,60.01361,30.368008,43,NaN,1.764,13.653,194.6,24 / 35,520013,2020-01-13 19:33:53:918
9.913986,-5.385193,-9.953186,0.07786,-8.864808,-4.192793,1.767523,-4.859301,-6.818249,-0.921967,-1.163727,-0.191864,0,-0.2213,33.7647,36.1664,176.432,63.0298,-178.3473,0,64.54338,60.013554,30.368061,46,NaN,4.392,15.170001,162.3,23 / 35,525013,2020-01-13 19:33:58:918
-2.912948,-5.795791,0.07254,-0.363689,-8.392047,-5.060797,-4.390438,1.143679,5.305026,-1.312927,2.205704,0.459549,0,14.3784,43.0649,13.8168,323.4317,78.1745,6.4779,0,64.47464,60.013466,30.36809,46,NaN,4.788,15.170001,166.3,23 / 35,530013,2020-01-13 19:34:03:918
-0.713867,-15.49231,-5.644821,-0.080477,-9.386549,2.838418,-6.124724,-2.993326,-4.135887,-0.308548,-0.655426,0.059906,0,8.2779,44.0155,8.6685,307.646,88.9116,13.8656,0,65.471,60.013382,30.36811,44,NaN,5.508,15.170001,183.7,21 / 35,535012,2020-01-13 19:34:08:917
-4.020264,-8.364776,-0.822891,-0.06367,-9.79912,0.378931,-1.761897,1.942698,0.217917,2.348389,-0.628616,-0.0168,0,7.579,40.1154,23.8159,169.5781,62.0415,-179.1141,0,63.00624,60.013317,30.368113,42,NaN,3.42,15.170001,187.9,22 / 35,540013,2020-01-13 19:34:13:918
-3.595291,-17.109589,-5.794449,-0.407603,-9.188432,-3.402494,-1.253705,1.395479,-4.119619,2.66655,0.132172,0.955612,0,3.1281,29.3655,32.9666,161.3568,55.6109,-178.8818,0,65.88062,60.013237,30.368149,44,NaN,7.992,15.170001,174.7,21 / 35,545013,2020-01-13 19:34:18:918
-1.361496,-5.695236,1.571304,-0.039812,-9.161929,-3.496837,1.754156,-2.47706,1.632039,-3.259155,2.042893,-0.619919,0,10.5789,34.1141,28.5675,144.7281,69.1084,179.3477,0,65.43163,60.01315,30.368149,42,NaN,5.976,15.170001,162.7,21 / 35,550013,2020-01-13 19:34:23:918
-6.786758,-11.285706,-0.839661,-0.025508,-9.307337,3.08921,-3.403245,-2.159965,-6.248949,0.393463,-0.940567,-0.102203,0,8.1284,44.9661,-2.9816,324.7066,71.6378,0.4731,0,67.15056,60.013058,30.368196,44,NaN,6.912,15.170001,182.9,22 / 35,555013,2020-01-13 19:34:28:918
-2.515503,-9.105774,-1.599808,-0.367525,-9.781085,-0.604718,0.37315,1.270367,-5.079083,3.621384,-4.020599,-0.732117,0,8.9783,43.4143,20.1675,188.2458,85.8619,148.7103,0,63.4142,60.01299,30.36818,45,NaN,3.744,15.170001,181.4,21 / 35,560012,2020-01-13 19:34:33:917
-1.598526,-11.625671,-14.648209,0.019615,-8.128778,-5.485706,0.335938,6.694853,9.286691,1.88945,1.120026,0.930222,0,4.8294,31.7139,34.169,153.489,55.9864,-179.7951,0,64.84619,60.01293,30.368204,46,NaN,5.4,13.653,170.2,22 / 35,565013,2020-01-13 19:34:38:918
2.089737,-20.824203,-1.652481,-0.777607,-9.756884,0.607409,-1.326557,-4.433803,-6.258697,-2.992126,-0.30423,0.511398,0,12.178,47.0642,11.6669,279.0062,84.2253,52.0057,0,65.29044,60.012867,30.368256,46,NaN,7.92,15.170001,173.5,23 / 35,570013,2020-01-13 19:34:43:918
-2.629227,-8.280975,-1.092239,-0.290759,-9.800884,0.16884,-0.446938,1.906567,0.501771,2.285538,-1.103012,0.058838,0,4.4296,42.2165,26.3672,188.6967,64.4566,-179.3609,0,63.39038,60.012768,30.36823,45,NaN,3.816,15.170001,197.1,23 / 35,575012,2020-01-13 19:34:48:917
1.752152,-1.119919,3.784744,0.075141,-8.204758,-5.370909,0.340544,7.220745,9.255442,-2.162292,1.475998,0.97052,0,1.1795,32.4158,37.8662,173.866,56.7883,-179.1984,0,58.37984,60.01272,30.368275,49,NaN,3.204,15.170001,174.4,23 / 35,580012,2020-01-13 19:34:53:917
-3.202637,-13.658356,-1.744659,-0.312648,-9.562824,2.150591,-1.674853,2.676424,-1.179522,1.592941,0.204071,-0.116394,0,7.6782,45.6146,-0.7828,316.2035,77.1967,8.2716,0,59.94406,60.01263,30.368292,48,NaN,6.732,13.653,192.9,25 / 36,585013,2020-01-13 19:34:58:918
-0.281723,-14.170715,-12.402451,0.044635,-8.465434,-4.950233,-1.094861,2.434944,-5.408931,1.52565,0.931107,1.002121,0,0.679,41.9128,49.6185,167.7791,65.3212,175.9337,0,62.63124,60.012566,30.368315,49,NaN,5.436,13.653,188.6,25 / 36,590012,2020-01-13 19:35:03:917
-3.780838,-14.777649,-8.321533,-0.677094,-9.339878,2.911806,-3.750603,-3.841308,-3.195285,-0.047028,-0.48941,0.314667,0,9.4788,46.4645,0.1175,324.0358,72.2513,13.0906,0,65.10936,60.01251,30.368351,49,NaN,2.448,13.653,187.2,26 / 36,595014,2020-01-13 19:35:08:919
10.747177,-5.84967,-9.869385,-0.564841,-9.21647,-3.302733,5.212134,2.607994,4.109701,1.445038,-1.357605,-0.91925,0,3.5812,29.213,31.8695,184.0764,70.0211,170.2951,0,67.09745,60.012466,30.368324,47,NaN,1.404,13.653,186.6,26 / 36,600012,2020-01-13 19:35:13:917
-2.126449,-5.655731,1.698196,-0.153672,-8.473506,-4.934213,-5.052152,0.952492,6.401343,-2.318893,1.14328,1.108643,0,8.3282,32.016,27.1667,136.0577,59.7752,178.2162,0,67.36498,60.012405,30.368332,44,NaN,4.572,13.653,196.5,12 / 23,605013,2020-01-13 19:35:18:918
-5.730926,-14.420914,-0.429047,-0.471965,-9.570743,2.085312,-3.315639,-4.98015,-5.564042,-0.213211,-1.070343,0.063278,0,3.4287,45.9152,-0.5829,342.2098,77.4072,12.7528,0,65.2162,60.012344,30.36835,42,NaN,5.22,15.170001,175.5,12 / 24,610013,2020-01-13 19:35:23:918
-0.146439,-13.312393,0.993103,-0.114983,-9.800032,-0.341385,-1.624609,0.141597,-3.225553,2.285187,0.750015,-0.293228,0,6.2775,40.715,29.1672,158.4776,67.2788,176.8693,0,65.52487,60.01228,30.368357,37,NaN,4.824,15.170001,190.1,14 / 24,615013,2020-01-13 19:35:28:918
-2.577759,-6.352447,-3.989227,0.247336,-8.17694,-5.408036,0.555271,7.174693,10.078928,-0.472244,1.664551,0.415695,0,4.2801,33.8638,38.118,155.7596,56.4927,-177.3814,0,65.71794,60.012222,30.368294,32,NaN,4.824,16.687,228.6,12 / 24,620012,2020-01-13 19:35:33:917
-0.900619,-13.775665,7.961426,-0.737377,-9.583751,1.943807,-2.90636,-5.081887,-4.739577,-1.807556,0.491516,0.778427,0,12.1277,45.665,-1.5839,289.7077,77.7607,20.7741,0,61.79596,60.012177,30.368248,31,NaN,6.012,16.687,181.6,12 / 34,625013,2020-01-13 19:35:38:918
-1.529098,-11.088181,-6.149994,0.034069,-9.800366,-0.349339,-1.177091,0.698287,-3.533936,2.174042,1.134049,-0.254715,0,6.8787,42.3645,21.4691,154.2923,87.9488,-174.4299,0,65.11446,60.012093,30.368256,33,NaN,4.14,15.170001,198.9,19 / 35,630013,2020-01-13 19:35:43:918
-2.921326,-7.135345,-7.42131,-0.117939,-9.0173,-3.852893,4.915433,-11.844734,-13.398703,-0.070648,0.4608,-0.296616,0,2.179,34.6649,29.718,162.1588,58.5435,-179.3293,0,65.92591,60.012028,30.368267,35,NaN,6.696,15.170001,177,23 / 35,635013,2020-01-13 19:35:48:918
4.810745,-18.34021,-0.399124,-0.419595,-9.767297,0.770868,-2.435412,-4.685126,-6.090798,-3.136658,0.144058,0.181519,0,8.6288,46.0159,10.4156,304.0705,84.8653,28.5601,0,65.67993,60.011936,30.368372,37,NaN,3.204,15.170001,192.9,24 / 35,640013,2020-01-13 19:35:53:918
0.138474,-8.104995,1.321106,-0.229932,-9.681842,-1.542544,-3.117432,-3.473524,3.043193,2.275421,-0.369217,-0.018753,0,0.5295,35.0159,34.317,183.5424,68.8197,-179.8471,0,63.97049,60.011852,30.36838,36,NaN,2.52,15.170001,237.9,26 / 35,645013,2020-01-13 19:35:58:918
1.243393,-0.225677,2.573288,0.226413,-8.436557,-4.99436,1.483908,8.058093,8.771015,1.230576,1.048645,0.484589,0,-10.6705,12.3657,18.3182,226.1293,59.3491,-177.4044,0,61.78112,60.011765,30.368448,38,NaN,4.608,15.170001,195.9,26 / 35,650012,2020-01-13 19:36:03:917
-3.463608,-13.375839,-0.75705,0.006541,-9.424032,2.712557,-5.044112,-3.451081,-3.626088,1.560272,0.07695,-0.249023,0,8.0292,51.265,8.667,333.7218,78.8689,5.52,0,65.38964,60.01166,30.368494,41,NaN,7.452,13.653,182.8,28 / 35,655013,2020-01-13 19:36:08:918
7.967514,-23.383606,-18.956573,-0.199419,-9.256105,-3.233439,1.574089,3.632079,-4.528154,0.084183,0.241531,-0.274597,0,0.5798,41.2155,29.4662,183.2562,70.7103,176.4708,0,65.61934,60.01157,30.368526,43,NaN,3.348,13.653,192,28 / 34,660013,2020-01-13 19:36:13:918
1.868271,-20.193329,-1.068298,-0.931224,-9.712946,-0.98076,3.765561,-4.997247,4.766935,-3.515182,2.992035,-0.407928,0,16.5787,44.6655,8.5175,152.6471,82.0731,136.4841,0,66.8339,60.01149,30.36856,43,NaN,5.04,13.653,175.3,28 / 34,665012,2020-01-13 19:36:18:917
-2.639999,-9.096207,-2.987259,-0.404836,-9.783768,0.533282,-0.115768,2.595482,0.982783,2.476578,-0.378799,-0.464035,0,9.8282,45.2148,16.2186,298.9414,86.0852,37.2036,0,69.02852,60.0114,30.368607,43,NaN,2.952,15.170001,189.7,27 / 34,670013,2020-01-13 19:36:23:918
-5.70459,-17.963135,5.002198,-0.258382,-8.75603,-4.408577,-2.400702,-4.636567,5.798569,-0.540787,-1.428268,-0.210327,0,4.2297,37.0163,33.7143,173.8715,67.9445,176.488,0,66.46038,60.011337,30.368622,43,NaN,4.608,15.170001,181.8,27 / 34,675013,2020-01-13 19:36:28:918
-7.083648,-8.947754,0.76326,0.111921,-9.09882,-3.656413,0.303194,-3.258684,0.245894,-3.247085,2.888352,-0.526184,0,16.7267,42.6636,11.0733,69.9583,68.0977,-178.2467,0,65.36661,60.01125,30.36862,41,NaN,5.688,15.170001,171.2,25 / 34,680013,2020-01-13 19:36:33:918
-3.914917,-14.334717,-1.871551,0.042038,-9.336133,3.000872,-1.110622,-1.896964,-6.959161,0.987869,-0.802597,-0.057983,0,8.4808,43.5303,2.6077,149.862,84.507,-177.3244,0,64.48047,60.01118,30.368652,38,NaN,8.496,13.653,159.9,23 / 34,685013,2020-01-13 19:36:38:918
12.074753,-7.208374,-6.173935,-0.413432,-8.6938,-4.51855,-1.050808,-1.218337,9.262932,-0.494446,-1.303986,0.014267,0,1.1292,38.1653,30.1163,173.9812,59.7193,-179.2943,0,64.57408,60.0111,30.368694,39,NaN,5.112,13.653,164.2,23 / 34,690013,2020-01-13 19:36:43:918
-3.404953,-10.925369,-2.18161,-0.410639,-8.869182,-4.164058,-3.326326,-1.26794,2.47464,-3.497955,2.205521,-0.499359,0,8.9539,40.9287,24.2233,217.5471,83.4994,128.4266,0,64.80991,60.01103,30.368761,44,NaN,1.296,13.653,177.4,23 / 34,695013,2020-01-13 19:36:48:918
-2.270096,-7.128174,2.368576,-0.292693,-9.5675,2.132528,-2.575228,0.663041,-2.254584,1.903824,-0.722885,-0.131134,0,6.3782,48.6649,8.5175,338.9844,77.3206,7.8151,0,65.19602,60.010952,30.368778,43,NaN,6.012,13.653,175.5,22 / 34,700013,2020-01-13 19:36:53:918
2.816376,-15.372604,-6.321182,0.172329,-8.753597,-4.417605,4.795882,-8.515136,-8.954165,-1.014648,0.475891,-0.124924,0,1.7288,38.9648,31.3171,187.0869,69.912,172.7011,0,65.53826,60.01089,30.368803,46,NaN,3.816,13.653,165.1,21 / 34,705012,2020-01-13 19:36:58:917
2.928909,-12.513931,-2.392288,-0.759592,-9.745593,-0.785386,4.025383,-7.012936,0.742637,-3.108597,-0.397278,0.528976,0,7.8796,43.3151,20.4666,208.4908,83.6031,135.9565,0,66.47356,60.010807,30.368837,46,NaN,3.708,13.653,201.7,21 / 34,710013,2020-01-13 19:37:03:918
-1.393829,-8.059509,-2.249832,-0.141467,-9.742618,1.109856,-1.237841,1.748779,-3.083133,2.499848,-0.55777,-0.136291,0,5.2795,44.2139,18.5699,159.2181,81.1266,178.7595,0,69.43434,60.01074,30.368795,48,NaN,4.644,13.653,189.8,24 / 34,715013,2020-01-13 19:37:08:918
0.042694,-18.922012,-22.558655,0.179546,-8.674263,-4.571141,2.329938,7.272802,7.755738,2.261215,-0.522446,1.078293,0,2.1286,35.466,35.2173,166.9412,62.1936,-177.7507,0,69.06647,60.01069,30.368818,50,NaN,2.952,13.653,177.9,24 / 34,720012,2020-01-13 19:37:13:917
0.939331,-12.640823,8.770676,-0.603156,-9.619306,1.809846,-1.993776,-5.082145,-6.080733,-3.276916,-0.449646,0.486359,0,10.0266,44.4656,-0.1846,299.9129,78.7826,18.4314,0,66.49257,60.010635,30.368843,49,NaN,5.184,13.653,192.2,25 / 34,725012,2020-01-13 19:37:18:917
-0.27214,-7.120987,0.908112,-0.199111,-9.706251,-1.385435,-0.976176,-1.840145,-0.751472,2.293533,-1.857742,-0.662003,0,3.1784,42.5644,24.4186,181.4311,81.7943,171.8216,0,65.76595,60.010536,30.368843,48,NaN,6.12,13.653,194.1,25 / 35,730013,2020-01-13 19:37:23:918
2.242966,-1.342575,3.368149,0.273206,-8.253371,-5.289386,1.561014,6.909023,9.089333,0.265808,1.441742,0.619522,0,6.279,31.9656,34.7168,164.1639,61.728,177.553,0,64.40883,60.010445,30.368874,47,NaN,3.024,13.653,179.7,26 / 35,735013,2020-01-13 19:37:28:918
-3.620422,-12.882629,-1.763809,-0.310326,-9.333166,2.994344,1.364513,-1.84693,-8.518665,1.607498,0.33847,-0.106277,0,5.629,47.2656,-2.7328,332.7754,72.1231,5.9169,0,64.29976,60.01038,30.368896,45,NaN,0,13.653,,27 / 36,740013,2020-01-13 19:37:33:918
-6.301941,-12.278091,10.809341,-0.118264,-8.876144,-4.16779,3.739448,3.920979,5.537016,0.854355,-1.498932,-0.025497,0,-2.771,35.3165,34.7672,179.2024,63.5059,-179.7223,0,65.93718,60.01035,30.368904,46,NaN,5.364,13.653,204.6,27 / 36,745012,2020-01-13 19:37:38:917
-1.2789,-4.836914,1.307938,-0.321169,-8.665845,-4.579342,-4.41186,-0.612418,4.623179,-2.587158,1.432327,0.935364,0,6.7291,40.7654,26.0666,128.8509,62.0883,175.9882,0,64.47798,60.010265,30.3689,45,NaN,4.536,13.653,177.9,27 / 36,750015,2020-01-13 19:37:43:920
-1.969635,-7.972122,1.990295,-0.275899,-9.442909,2.631678,-1.234518,1.229327,-1.550116,1.813812,-0.885345,0.160751,0,7.4295,48.616,10.2676,301.3419,87.4361,32.4691,0,63.16182,60.010174,30.368874,44,NaN,6.264,13.653,201,27 / 36,755012,2020-01-13 19:37:48:917
-2.942871,-12.778488,-18.149734,-0.485579,-9.133345,-3.537883,2.01433,7.235719,7.974655,2.408585,0.08548,1.064621,0,-3.4225,36.5646,35.6689,202.1116,68.645,172.1849,0,65.17618,60.0101,30.368853,44,NaN,4.932,13.653,178.9,26 / 36,760013,2020-01-13 19:37:53:918
-3.979553,-14.022278,-3.66481,-0.993824,-9.755565,0.107986,-2.819692,-5.351099,-4.96167,-1.048019,0.284851,0.569275,0,8.2779,49.0143,0.3174,330.6237,72.3683,5.1816,0,64.93936,60.01002,30.36886,44,NaN,5.4,13.653,186,27 / 36,765013,2020-01-13 19:37:58:918
-1.653595,-9.72229,-14.127472,-0.370877,-9.799557,-0.038997,-2.43027,-1.079427,-1.50656,2.915115,-1.860062,-0.66626,0,-1.973,36.6623,31.5704,204.5072,71.2526,169.1573,0,62.04412,60.009933,30.368828,45,NaN,3.384,13.653,206.7,26 / 36,770012,2020-01-13 19:38:03:917
0.388657,-0.540527,1.984314,0.195006,-8.325767,-5.178219,-0.890044,5.264011,1.190025,0.514542,1.451325,0.506073,0,3.3783,31.0654,34.668,161.9199,58.1022,-177.8433,0,63.58942,60.009876,30.368832,47,NaN,5.688,13.653,191.5,26 / 36,775016,2020-01-13 19:38:08:921
1.534287,-20.541689,-4.932541,-0.926476,-9.759444,-0.255531,3.35688,-8.362775,1.431778,-3.356277,-0.35733,0.518677,0,8.4778,50.8148,5.7663,220.6148,84.3759,105.4194,0,65.82233,60.009804,30.368835,47,NaN,4.716,13.653,204.8,28 / 36,780012,2020-01-13 19:38:13:917
-0.390656,-7.640533,-0.977325,-0.34703,-9.689569,1.470447,-3.619188,1.319982,-2.522239,2.237961,-1.145447,0.023682,0,2.9282,48.9639,13.8184,187.3144,85.7896,162.4436,0,66.24744,60.009697,30.368824,47,NaN,6.768,13.653,197.8,28 / 36,785013,2020-01-13 19:38:18:918
-1.875061,-17.677017,-12.582016,-0.026862,-8.740141,-4.447427,2.504805,-7.382209,-10.895142,0.416351,0.137497,0.177429,0,2.3788,33.313,36.4197,174.0589,63.0303,179.654,0,67.13564,60.009636,30.368855,49,NaN,4.896,13.653,169.6,27 / 35,790012,2020-01-13 19:38:23:917
2.247757,-21.244385,-5.142029,-0.645903,-9.545225,-2.154501,3.909114,-8.559851,1.780006,-3.423035,0.094696,0.503403,0,10.5286,46.0159,8.017,315.1142,78.3175,19.5411,0,66.78119,60.00957,30.368889,49,NaN,3.996,13.653,192.9,27 / 35,795013,2020-01-13 19:38:28:918
-3.348694,-7.847625,0.425674,-0.203457,-9.74488,1.079956,-1.787645,1.502467,-1.4066,2.048172,-0.654892,0.58667,0,10.0296,41.6153,15.5685,124.5757,83.3339,-169.1044,0,66.62917,60.009502,30.36894,50,NaN,5.184,13.653,146.8,27 / 34,800013,2020-01-13 19:38:33:918
-1.05983,-3.819382,-1.833252,0.180177,-8.222352,-5.341428,0.867593,6.676609,4.885371,2.501785,0.633194,0.933594,0,6.2286,24.2661,32.9163,153.731,56.9764,-178.068,0,59.5362,60.00944,30.36894,51,NaN,5.616,13.653,186.6,26 / 35,805013,2020-01-13 19:38:38:918
-2.157577,-14.588501,-4.06105,-0.437487,-9.526666,2.285086,-2.896632,-3.417165,-2.47991,-3.433685,0.713623,0.550278,0,18.129,35.3653,-6.7322,264.1958,76.2759,10.8383,0,65.08457,60.009365,30.368958,50,NaN,8.316,13.653,178,27 / 35,810013,2020-01-13 19:38:43:918
-1.514725,-7.464554,2.105209,-0.154183,-9.789085,-0.566051,-3.912441,-1.896534,6.894405,3.165802,-2.878799,-0.725906,0,9.5291,38.0142,13.8702,156.6601,86.5702,164.7632,0,68.75298,60.009266,30.369001,51,NaN,6.228,13.653,163.2,27 / 35,815013,2020-01-13 19:38:48:918
0.444931,-0.915207,1.817917,-0.475532,-9.068282,-3.70277,1.602702,7.807964,9.255458,2.804154,0.470566,1.335205,0,7.8293,26.265,33.168,151.9147,55.6161,177.9496,0,69.67841,60.009182,30.369106,52,NaN,6.768,13.653,152.7,26 / 35,820013,2020-01-13 19:38:53:918
-1.970825,-15.544983,-9.328293,-0.23885,-9.417397,2.725064,-1.705212,-4.537449,-7.809162,-2.727585,1.071014,0.536255,0,15.5777,42.3157,-6.6818,283.4921,73.8028,5.0091,0,67.11554,60.009113,30.369165,53,NaN,7.452,13.653,169.1,26 / 35,825012,2020-01-13 19:38:58:917
-1.501556,-8.306122,-1.09584,0.010489,-9.779108,-0.734374,-1.362299,2.369034,0.989236,2.462906,-1.754059,0.246323,0,8.7784,42.7139,20.3201,150.7709,85.7049,-179.1817,0,67.10941,60.00904,30.36919,52,NaN,5.004,13.653,224.7,25 / 35,830013,2020-01-13 19:39:03:918
1.254166,-5.72995,-2.063095,0.180525,-8.72048,-4.482301,3.291654,-13.44942,-15.374212,0.140457,-0.103256,-0.040405,0,1.7776,35.3149,33.4167,165.8964,62.7781,-177.6937,0,66.8702,60.00899,30.369213,54,NaN,6.372,13.653,156.5,26 / 35,835013,2020-01-13 19:39:08:918
-5.152725,-9.809677,0.228165,-0.480503,-8.466208,-4.925729,1.389301,-2.574523,1.384615,-3.193466,1.907959,-0.474853,0,12.2803,41.1163,24.1653,168.6067,77.9489,160.9673,0,65.41446,60.00892,30.36928,52,NaN,5.868,13.653,174.9,26 / 35,840012,2020-01-13 19:39:13:917
-6.293564,-14.347885,-1.325684,-0.209827,-9.269006,3.195606,-5.278319,-2.419047,-5.422124,-0.268249,-1.213623,0.134644,0,10.0281,51.6159,-5.4321,320.3525,70.9397,3.7567,0,62.71964,60.00883,30.369318,53,NaN,7.92,15.170001,185.1,26 / 35,845013,2020-01-13 19:39:18:918
-0.693512,-8.33844,-1.656082,-0.223102,-9.5152,-2.362543,-0.762475,-0.601389,-2.808012,2.33046,0.063278,-0.63678,0,1.7776,36.2656,33.7677,182.838,75.9963,174.6054,0,65.00562,60.008774,30.369322,50,NaN,2.988,13.653,187.1,27 / 35,850013,2020-01-13 19:39:23:918
1.434921,-0.413635,1.765244,-0.093605,-8.778954,-4.369394,0.146472,6.812495,9.575686,-0.67749,1.550919,0.30278,0,5.5786,31.1646,38.4171,169.1001,59.1369,175.9091,0,64.81099,60.00874,30.369305,51,NaN,7.56,13.653,174.7,27 / 34,855013,2020-01-13 19:39:28:918
-0.494797,-11.529907,-3.488846,-0.806897,-9.541449,-2.116615,-1.722175,-2.056597,4.1051,-3.3806,-0.232513,0.729599,0,17.1768,45.7169,6.1157,296.2485,78.8375,19.4903,0,62.32906,60.008675,30.36934,48,NaN,4.896,13.653,170.9,27 / 34,860013,2020-01-13 19:39:33:918
-3.154755,-8.10141,2.290772,-0.277641,-9.77774,0.699361,-0.393411,1.968553,-2.682666,1.907013,-1.072998,0.117599,0,17.1783,38.5651,10.318,287.1249,85.5994,21.6527,0,67.98984,60.008606,30.36937,45,NaN,4.968,13.653,218.6,27 / 34,865013,2020-01-13 19:39:38:918
-6.83345,-16.051361,7.222824,-0.350403,-8.983813,-3.916466,1.887094,-0.915357,-1.408073,-0.216415,-0.021591,-0.349167,0,0.7782,32.7652,29.3167,186.8044,66.3616,174.8874,0,67.60361,60.008564,30.369331,44,NaN,4.932,13.653,178.6,27 / 34,870012,2020-01-13 19:39:43:917
-6.529388,-7.718338,0.618408,0.035819,-9.110906,-3.62774,2.507418,-8.21545,2.603318,-3.62561,2.002945,-0.484451,0,21.1792,34.465,6.2164,226.2764,85.9621,64.2899,0,67.54009,60.008514,30.369339,39,NaN,1.44,13.653,179,28 / 34,875013,2020-01-13 19:39:48:918
-5.964355,-12.2733,-0.837265,0.005704,-9.353333,2.947119,-6.151325,-3.161659,-4.011556,-0.396255,-0.425858,0.13945,0,6.1798,41.1148,-0.1328,332.7076,73.2666,1.8146,0,67.20284,60.008434,30.369324,40,NaN,6.012,13.653,217.3,27 / 34,880013,2020-01-13 19:39:53:918
-2.777664,-9.796509,-2.353989,-0.589696,-9.711679,-1.227169,-6.251985,-2.781339,0.977545,2.407333,0.040726,-0.088348,0,6.1295,40.3641,21.5195,193.8946,82.0196,154.3342,0,66.33812,60.008354,30.36927,39,NaN,7.236,13.653,214.7,25 / 35,885013,2020-01-13 19:39:58:918
-6.131942,-10.481247,10.701599,-0.017789,-9.067504,-3.735029,5.460286,-10.951591,-13.440119,-1.065247,0.286453,-0.301224,0,-1.5701,37.265,31.3171,188.3895,67.6123,179.7271,0,66.65995,60.008278,30.369255,40,NaN,5.184,13.653,205.2,25 / 35,890013,2020-01-13 19:40:03:918
-0.375092,-4.040848,1.566513,-0.400886,-8.298812,-5.209549,-2.836802,2.218038,6.458903,-2.361145,2.002594,1.477417,0,2.9282,40.1169,21.4645,179.1045,78.5114,172.4112,0,65.558,60.008198,30.36928,40,NaN,4.464,13.653,202.1,25 / 35,895012,2020-01-13 19:40:08:917
-3.25412,-13.186691,-4.008377,-0.640918,-9.785299,0.08669,-1.524283,-2.252778,5.282609,-3.197555,-0.111252,0.382324,0,2.8793,45.3156,-1.2833,347.0646,71.8297,-0.8678,0,63.95392,60.008114,30.369286,41,NaN,5.328,13.653,173.6,24 / 34,900013,2020-01-13 19:40:13:918
0.18396,-8.385116,0.024658,0.029745,-9.248434,3.261284,0.540196,-2.080493,-7.280718,1.799255,-0.271744,-0.230927,0,3.5294,44.4656,16.0141,195.6312,82.4398,155.8923,0,65.58139,60.008007,30.36928,42,NaN,6.588,13.653,190.3,25 / 34,905012,2020-01-13 19:40:18:917
0.00798,-6.324905,2.078873,-0.163977,-9.295337,-3.120929,1.883536,1.953124,6.698344,2.042496,-0.486572,-0.767105,0,0.2792,31.4148,31.218,184.7769,71.4166,176.9924,0,65.17171,60.00795,30.369326,41,NaN,2.304,13.653,189.4,26 / 34,910013,2020-01-13 19:40:23:918
-2.490372,-6.535599,-2.726288,0.101021,-8.94498,-4.018398,6.601597,-12.557393,-10.810853,-1.187225,-0.312759,-0.503265,0,-2.6718,35.0143,32.0679,184.6015,60.3958,-176.1716,0,64.31529,60.007896,30.36936,41,NaN,4.176,13.653,195.2,26 / 34,915012,2020-01-13 19:40:28:917
-0.84436,-4.040848,1.457581,-0.350531,-8.390696,-5.063966,-4.581502,1.107553,6.778744,-3.519089,2.542328,-0.484451,0,6.5292,41.6657,19.9173,193.6275,79.2396,152.3202,0,66.25504,60.007797,30.369408,42,NaN,4.608,13.653,173.1,25 / 34,920013,2020-01-13 19:40:33:918
-5.888931,-12.838333,0.891357,-0.506962,-9.595416,1.959939,-2.387045,-4.633703,-6.146534,-0.266647,-0.875931,0.163757,0,1.9287,46.9147,-1.8829,351.8544,70.6055,1.1792,0,66.01062,60.00771,30.369423,42,NaN,7.704,13.653,200.7,27 / 34,925013,2020-01-13 19:40:38:918
-3.317566,-8.373153,-2.108581,-0.115187,-9.730491,-1.214361,0.335747,-0.519157,-3.961941,2.296723,-0.242813,-0.754669,0,-0.7706,44.664,21.3684,191.1929,82.8547,174.5815,0,65.95532,60.00763,30.369423,42,NaN,3.276,4.5509996,204.1,26 / 34,930013,2020-01-13 19:40:43:918
-2.418533,-5.053589,-5.292862,-0.291383,-9.115112,-3.605582,4.724031,-12.154703,-12.760962,0.55928,-0.327667,0.019592,0,-4.2709,38.7146,30.7678,204.7966,68.3543,175.3797,0,64.7643,60.00757,30.369469,43,NaN,4.14,6.068,172.8,26 / 34,935012,2020-01-13 19:40:48:917
-5.446014,-8.245056,-0.327301,-0.444161,-9.583384,-2.032702,0.126093,-2.295125,1.781271,-3.096176,1.612,-0.425507,0,4.2786,37.8647,26.918,185.7136,77.7505,167.6742,0,64.23899,60.007484,30.369461,41,NaN,5.076,4.5509996,204.3,27 / 34,940013,2020-01-13 19:40:53:918
-0.063843,-9.62532,0.177887,-0.136939,-9.545894,2.24222,-1.508429,1.794562,-1.4012,1.481628,0.076767,-0.090302,0,0.3769,42.4606,11.2732,194.2126,88.2735,167.4121,0,63.3389,60.00742,30.369476,44,NaN,6.876,7.5850005,196.8,28 / 34,945012,2020-01-13 19:40:58:917
-2.769287,-11.424561,-6.724609,-0.612226,-9.105776,-3.588927,0.149372,-6.193131,-7.626087,1.905777,0.584366,0.013565,0,-16.9205,35.2615,26.2711,255.4551,64.5795,170.1815,0,62.10372,60.00735,30.36946,43,NaN,3.096,7.5850005,228.2,28 / 34,950013,2020-01-13 19:41:03:918
-0.875473,-9.739044,0.661514,-0.398744,-9.528549,2.284326,-1.464667,-0.633682,-1.086982,0.097305,-0.860657,0.048187,0,-11.6257,48.6191,2.6154,33.2537,76.7304,13.2454,0,65.28491,60.00733,30.369394,45,NaN,1.98,6.068,277,27 / 34,955012,2020-01-13 19:41:08:917
-0.949692,-9.74144,-0.563126,-0.774208,-9.770572,-0.327003,0.17992,0.020848,-0.593921,0.324036,-0.198242,0.060974,0,-19.2215,47.1619,6.8237,323.5696,85.0837,112.8978,0,66.59613,60.007286,30.369337,45,NaN,1.764,6.068,201.7,28 / 34,960014,2020-01-13 19:41:13:919
1.007568,-10.775742,3.327454,-0.782633,-9.774764,-0.108891,-0.310534,-0.840805,-0.27642,-1.460648,-0.022293,0.174057,0,15.8295,47.1649,-5.7343,199.3612,82.887,31.5486,0,66.66052,60.007267,30.369305,47,NaN,2.952,4.5509996,117.7,27 / 34,965013,2020-01-13 19:41:18:918
3.601685,-17.205368,-1.735092,0.323699,-8.75474,-4.406829,0.834045,-8.197942,-9.516956,2.232102,2.038635,0.59964,0,-4.4632,31.3522,38.4766,195.6476,53.2312,-179.0102,0,65.23906,60.00724,30.369354,48,NaN,3.96,4.5509996,137.9,27 / 34,970013,2020-01-13 19:41:23:918
-3.614441,-10.63208,-0.566711,-0.158998,-8.803116,-4.318594,-0.631529,-2.536901,2.8038,-3.636261,0.318054,-0.563995,0,13.1287,44.165,13.3163,59.7461,63.8532,177.8915,0,65.15688,60.00717,30.369339,46,NaN,2.808,4.5509996,138.2,27 / 34,975013,2020-01-13 19:41:28:918
-3.401367,-12.258942,-8.442444,0.050157,-9.607226,1.966996,-1.063853,1.785725,-1.089946,2.271515,-0.174637,-0.058517,0,12.5305,49.0799,-9.5459,271.5679,78.4254,-1.4607,0,60.53012,60.007126,30.369473,45,NaN,6.192,4.5509996,127.2,28 / 34,980013,2020-01-13 19:41:33:918
-1.638031,-13.803207,2.964737,-0.02523,-8.897546,-4.123521,3.770431,3.20747,4.933481,3.514862,-3.31929,-0.723785,0,-3.685,32.7713,32.9941,191.4539,63.9791,-178.4276,0,64.04616,60.007076,30.369564,49,NaN,3.348,4.5509996,150.4,28 / 34,985013,2020-01-13 19:41:38:918
-2.361084,-9.397873,-11.997833,-0.290964,-9.027279,-3.820203,0.801373,7.355793,5.256875,0.003922,1.760605,0.340958,0,1.2253,23.0301,26.6098,183.4797,57.0023,176.5727,0,67.48039,60.007004,30.369577,47,NaN,3.564,13.653,194,29 / 34,990013,2020-01-13 19:41:43:918
-1.160385,-1.036118,3.507019,-0.237209,-8.260618,-5.279802,-4.305037,3.100536,7.844144,-3.149612,2.729279,-0.09314,0,11.055,34.3872,11.8271,129.0474,75.9053,163.8624,0,68.15427,60.006977,30.369516,48,NaN,4.5,13.653,247.3,28 / 34,995013,2020-01-13 19:41:48:918
4.27684,-14.94165,-2.243851,-0.496361,-9.745662,0.972665,0.052965,-4.694642,-8.068717,-2.651428,1.032486,0.560394,0,5.8762,35.7132,4.3991,304.0436,83.6067,27.0357,0,69.0736,60.0069,30.369467,47,NaN,5.652,13.653,193.2,28 / 34,1000013,2020-01-13 19:41:53:918
1.735397,-16.039383,-7.524261,0.260295,-9.331683,3.003717,-4.478678,-1.963508,-6.746629,-0.439758,0.229279,0.424744,0,2.3285,39.415,4.3671,350.4855,79.7748,-2.366,0,69.46768,60.006798,30.369402,46,NaN,3.456,13.653,197.2,29 / 34,1005012,2020-01-13 19:41:58:917
0.930954,-10.958893,-2.288147,-0.530112,-9.778592,0.518158,-2.689476,2.199542,-3.21897,1.940567,-1.124847,-0.060303,0,12.6801,34.1156,4.6173,161.4658,72.3239,156.3185,0,68.38076,60.006744,30.369333,46,NaN,3.6,13.653,196.4,29 / 34,1010013,2020-01-13 19:42:03:918
-1.951675,-8.960922,-0.236313,-0.150939,-9.244484,-3.269117,-1.305102,-1.48655,4.537161,1.92601,-1.633331,-0.865814,0,-1.7212,25.2655,28.4668,182.1225,63.0426,-176.9496,0,66.55973,60.006687,30.369303,42,NaN,2.88,13.653,215.4,29 / 34,1015012,2020-01-13 19:42:08:917
4.895752,-7.447799,-4.737411,0.173733,-8.91599,-4.079868,-0.785943,-0.623883,-6.582815,-1.221481,0.190048,-0.370468,0,-4.3716,26.915,26.5167,189.7577,62.359,-175.7603,0,67.02248,60.00662,30.369265,44,NaN,0,13.653,,28 / 34,1020014,2020-01-13 19:42:13:919
3.36824,-24.944626,-25.527466,-0.08489,-9.103857,-3.64458,0.279863,7.6676,10.589535,-0.082367,2.028687,0.350891,0,-7.6218,21.2646,31.3675,211.3239,57.4565,178.3262,0,66.9934,60.0066,30.369263,45,NaN,0,13.653,,28 / 33,1025013,2020-01-13 19:42:18:918
-1.116089,-2.837753,2.339844,0.212168,-9.015172,-3.853836,-4.875394,1.976166,6.13155,-2.296875,1.645371,1.672363,0,9.8282,34.465,19.4672,107.8567,66.8227,-176.8488,0,64.581,60.00655,30.369219,42,NaN,4.824,13.653,237.6,28 / 32,1030013,2020-01-13 19:42:23:918
-4.490722,-10.050293,-0.95578,-0.879252,-9.722153,-0.936506,4.213834,-6.851603,2.052133,-3.803863,2.100418,-0.793732,0,2.6794,37.1658,10.0662,349.6778,74.3528,3.1217,0,63.84772,60.006447,30.36911,41,NaN,7.092,13.653,202.5,28 / 32,1035013,2020-01-13 19:42:28:918
-1.063415,-15.816727,-8.915298,-0.629879,-9.666777,1.525478,-6.920368,-2.663226,-4.802777,-0.279434,-0.100769,0.171402,0,2.7786,39.8651,2.6688,337.2854,81.6168,9.6106,0,62.64354,60.006348,30.369026,42,NaN,6.372,13.653,224,27 / 32,1040012,2020-01-13 19:42:33:917
0.267761,-12.967621,-13.48822,-0.082422,-9.638454,1.806599,-1.353513,-0.037687,-3.341792,2.466629,-0.514282,0.117432,0,-2.8213,39.5142,14.6698,192.4445,85.6025,-178.6224,0,62.77248,60.006256,30.368965,41,NaN,5.364,13.653,222.2,27 / 32,1045013,2020-01-13 19:42:38:918
0.176773,-13.248947,0.434067,-0.276183,-9.592737,-2.018294,-1.404675,-0.582025,-4.587357,2.653061,-0.104507,-0.67691,0,-3.8208,24.4156,29.0161,196.54,63.2696,179.0745,0,62.44585,60.006184,30.368933,41,NaN,3.492,13.653,220.9,28 / 32,1050013,2020-01-13 19:42:43:918
3.266495,-10.810455,-3.293716,0.268018,-8.789721,-4.34043,4.517897,-5.128645,-6.937599,-1.134491,0.662674,-0.131668,0,0.4761,22.5128,24.7681,183.7043,69.3684,177.733,0,60.14054,60.006115,30.368883,42,NaN,5.58,13.653,213.4,28 / 32,1055013,2020-01-13 19:42:48:918
-3.376221,-10.013184,-17.837296,-0.170549,-8.881063,-4.155481,2.38718,7.582227,10.657986,0.176315,1.751907,0.413574,0,0.9781,24.4644,32.5668,182.6814,71.3716,176.3457,0,61.39292,60.00603,30.368855,43,NaN,4.824,13.653,198.5,28 / 32,1060013,2020-01-13 19:42:53:918
-1.974411,-10.994797,-2.272583,-0.829668,-9.769049,-0.218475,3.321238,-9.396381,0.108152,-2.884003,-0.179077,0.636032,0,4.4296,33.6655,20.816,337.5169,73.6915,0.0461,0,64.12491,60.005943,30.368792,42,NaN,5.364,13.653,218.3,28 / 32,1065012,2020-01-13 19:42:58:917
2.756531,-11.654404,-3.801285,-0.003895,-9.421699,2.720655,0.60623,-2.948832,-9.666326,2.45723,-0.792313,-0.039169,0,-5.7709,43.6646,18.1168,324.6752,89.0583,55.019,0,63.82776,60.005856,30.368725,42,NaN,5.94,13.653,200.8,28 / 32,1070012,2020-01-13 19:43:03:917
1.379868,-8.592224,-0.482925,-0.21022,-9.763621,-0.89324,0.299319,1.286517,5.931728,3.206101,-2.239288,-0.726974,0,-14.4226,35.4141,43.4677,215.2676,64.6989,176.8077,0,65.58029,60.005795,30.36871,42,NaN,2.592,13.653,198,28 / 32,1075013,2020-01-13 19:43:08:918
6.187424,-23.872025,-16.63301,0.108728,-9.067363,-3.73383,0.870641,6.783386,4.022445,0.422745,0.142822,-0.164154,0,48.4787,-17.1356,53.9673,141.2185,63.0222,177.9698,0,65.79856,60.00575,30.368671,45,NaN,3.996,13.653,198.1,28 / 32,1080013,2020-01-13 19:43:13:918
-4.910904,-7.390335,1.809525,-0.371739,-9.442406,-2.621675,-3.214222,-1.774497,4.69641,-3.985306,1.866058,-0.571976,0,6.3278,37.6648,15.0162,324.1593,81.9417,24.9398,0,64.91037,60.005684,30.368633,43,NaN,5.472,13.653,268.1,28 / 32,1085012,2020-01-13 19:43:18:917
-4.191452,-12.919739,3.453156,-0.294234,-9.432604,2.666421,-2.050162,-4.317559,-5.496171,-0.323822,-0.036682,0.432739,0,2.6291,48.2147,1.4175,348.8415,72.189,3.2418,0,65.60994,60.00561,30.36854,40,NaN,6.696,13.653,254.4,28 / 32,1090013,2020-01-13 19:43:23:918
-2.547821,-8.221115,-0.56192,-0.521487,-9.775849,0.575503,0.524157,2.864774,0.675863,2.085983,-1.800232,-0.171448,0,8.4274,28.714,20.018,162.6987,73.0521,168.0628,0,64.59604,60.00554,30.368422,40,NaN,6.624,13.653,222.9,28 / 32,1095012,2020-01-13 19:43:28:917
1.821594,-7.074295,-7.398575,-0.710105,-8.689101,-4.490618,-2.266197,-3.316905,11.916348,1.778839,-1.03093,-0.927063,0,2.3285,25.7645,25.0168,175.8667,67.4055,177.5974,0,64.05167,60.00548,30.368387,39,NaN,3.492,13.653,240,27 / 32,1100013,2020-01-13 19:43:33:918
2.536255,-1.344971,4.845383,0.061872,-8.236748,-5.321892,0.505938,7.251034,10.196077,-2.326156,1.905472,1.286026,0,2.829,22.5647,22.4167,169.3317,65.9885,177.5103,0,66.2488,60.00536,30.368374,40,NaN,6.408,13.653,197.3,27 / 32,1105013,2020-01-13 19:43:38:918
-4.12561,-14.204224,-6.801224,-0.759019,-9.766468,0.458667,-2.009753,-4.652205,-2.507808,-3.538971,0.942474,0.578507,0,8.078,36.4151,2.8168,320.2317,78.3478,3.0355,0,67.35436,60.005272,30.36832,42,NaN,6.624,13.653,201.9,26 / 32,1110012,2020-01-13 19:43:43:917
-0.051865,-7.472931,-0.045975,-0.226175,-9.688434,-1.501163,0.288181,1.644986,-0.306112,2.394913,-1.325287,0.356216,0,-0.2213,24.5148,27.8671,186.6035,61.612,176.9871,0,67.99585,60.00519,30.368309,41,NaN,2.592,13.653,201.4,27 / 32,1115012,2020-01-13 19:43:48:917
3.551407,-12.66954,-9.963959,0.10386,-8.886799,-4.145409,0.857302,-6.014842,-9.363926,1.655792,-0.179596,0.42955,0,-1.6708,18.6661,25.9155,193.6394,57.4137,178.1964,0,65.98894,60.00513,30.368313,41,NaN,0,13.653,,27 / 32,1120012,2020-01-13 19:43:53:917
-1.945679,-11.765732,11.826874,-0.878418,-9.761764,0.326703,-3.219091,-5.130092,-5.744763,-1.124542,0.284149,0.419251,0,7.1289,36.0138,-0.4333,327.1302,71.7754,3.8876,0,66.14617,60.005104,30.368313,41,NaN,0,13.653,,27 / 32,1125013,2020-01-13 19:43:58:918
-2.851898,-7.894317,0.539413,-0.090606,-9.796144,0.444703,-1.484256,-0.887424,1.498165,1.955307,0.010376,0.355331,0,-1.5701,25.1633,27.4673,182.5107,63.7308,-176.9893,0,64.56974,60.005043,30.368256,40,NaN,5.184,13.653,230.9,27 / 32,1130013,2020-01-13 19:44:03:918
9.053284,-29.21109,-16.170929,0.327984,-8.358663,-5.118159,-0.11548,5.319181,1.620647,3.041702,0.454407,1.22406,0,-0.7721,19.4153,28.1174,190.8909,60.1287,176.2483,0,65.71057,60.004963,30.368158,40,NaN,7.272,13.653,206.8,26 / 31,1135013,2020-01-13 19:44:08:918
2.749344,-13.780457,8.543228,-0.40409,-9.659384,1.644206,-0.945863,-2.986734,6.099729,-3.122452,-0.197006,0.658752,0,9.23,28.566,9.4162,338.0607,71.9171,-3.3148,0,66.48859,60.004875,30.368097,39,NaN,7.092,13.653,209.1,26 / 32,1140013,2020-01-13 19:44:13:918
-2.398193,-7.885925,-0.189621,-0.014016,-9.78194,-0.695589,-1.09948,-0.747573,8.866697,2.913162,-1.197632,-0.836334,0,-4.1214,14.8651,24.6674,200.1498,64.8813,175.7363,0,67.8675,60.004784,30.36804,40,NaN,3.744,13.653,201.9,27 / 32,1145013,2020-01-13 19:44:18:918
-0.642044,-12.817993,-17.569138,-0.211972,-9.234457,-3.293973,1.186085,7.886018,7.042336,1.808121,-1.013885,0.428482,0,-5.6213,30.5161,32.2159,180.1249,63.0965,179.9326,0,68.09148,60.004738,30.367987,39,NaN,6.084,13.653,210.3,27 / 32,1150012,2020-01-13 19:44:23:917
-0.434952,-10.162811,-3.595383,-0.917404,-9.762058,-0.176004,4.893756,-9.613901,0.859876,-3.694672,1.896607,-0.623642,0,11.3297,28.7155,18.2663,323.7413,72.5851,2.5516,0,65.90401,60.00464,30.367931,37,NaN,6.228,13.653,202.3,27 / 32,1155014,2020-01-13 19:44:28:919
-5.732116,-12.136841,1.267242,-0.125626,-9.404145,2.77789,-1.941238,-2.609128,-7.737564,2.258728,-0.816101,0.029892,0,4.5792,30.1147,8.7677,316.1476,87.7617,19.2998,0,65.87099,60.00455,30.36787,42,NaN,6.336,13.653,225.6,27 / 32,1160013,2020-01-13 19:44:33:918
-6.854995,-12.981995,12.862366,-0.174236,-9.500932,-2.42329,0.851757,3.727463,8.57051,2.965714,-3.009659,-0.844864,0,-4.1199,30.2155,30.7159,193.3623,61.6035,-174.1119,0,66.54201,60.004475,30.367798,42,NaN,5.004,13.653,239.7,27 / 32,1165013,2020-01-13 19:44:38:918
-2.351501,-7.568695,-9.111618,-0.384001,-9.227474,-3.297976,2.108674,7.683333,7.580411,1.79126,1.328461,0.949753,0,10.2798,24.2661,30.867,146.7768,66.2595,-176.5265,0,65.61815,60.00441,30.367777,42,NaN,6.156,13.653,191.1,27 / 32,1170012,2020-01-13 19:44:43:917
-2.690277,-11.030716,-2.901062,-0.147169,-8.905968,-4.102738,4.01034,-8.590915,0.64398,-3.70816,1.870316,-0.501495,0,18.5287,33.0658,11.5173,286.3649,72.6714,3.5315,0,65.45836,60.00434,30.36773,41,NaN,4.032,13.653,217.3,27 / 32,1175012,2020-01-13 19:44:48:917
-4.950409,-12.621658,-1.11499,-0.011473,-9.31424,3.068416,-4.473927,-2.281167,-4.962003,0.218582,-1.22055,-0.001526,0,19.5282,39.2654,3.5172,285.1237,84.878,5.6497,0,64.28954,60.004253,30.367643,40,NaN,6.336,13.653,218.3,28 / 32,1180013,2020-01-13 19:44:53:918
1.07341,-8.757416,-0.652908,-0.207736,-9.770225,-0.818495,-0.432694,1.946826,-0.135516,2.406265,-0.821609,0.175827,0,14.0289,35.0159,18.866,158.7065,65.0219,173.4095,0,62.7891,60.00419,30.367594,41,NaN,4.788,15.170001,204.8,27 / 32,1185013,2020-01-13 19:44:58:918
2.250153,-9.518784,-3.117737,0.12247,-8.880568,-4.158234,1.766973,-8.403096,-11.068684,1.041672,-0.043961,0.269577,0,7.9788,24.1653,31.868,155.3951,57.8707,177.6505,0,64.22809,60.00416,30.367544,42,NaN,0,15.170001,,27 / 32,1190012,2020-01-13 19:45:03:917
-0.436142,-10.354355,-3.004013,-0.273931,-8.591346,-4.720606,2.283635,-3.536016,1.982532,-2.636688,1.56601,1.241806,0,14.5782,38.4659,1.7166,303.5073,75.6257,5.337,0,67.006,60.00409,30.367485,40,NaN,4.104,15.170001,208.8,27 / 32,1195012,2020-01-13 19:45:08:917
-5.948791,-11.541885,-0.30455,-0.110299,-9.309778,3.079974,-3.36382,-2.895756,-5.882431,2.218079,0.225021,-0.017868,0,16.0294,37.7655,9.3185,296.9925,85.0239,11.512,0,66.88666,60.00402,30.367393,38,NaN,6.912,15.170001,239.2,27 / 32,1200013,2020-01-13 19:45:13:918
-1.920547,-8.691574,-0.40271,-0.089974,-9.75596,-0.991732,-0.500835,2.621821,1.338226,2.515289,-0.642456,-0.650818,0,9.7275,26.7151,27.7191,151.5169,64.9641,175.7398,0,67.00235,60.00396,30.367344,39,NaN,5.616,15.170001,216.6,25 / 32,1205013,2020-01-13 19:45:18:918
-4.100464,-4.74234,-4.405823,-0.220913,-8.911647,-4.08707,1.81403,-5.235394,-9.269476,1.880219,-0.542862,0.369888,0,9.079,31.2653,28.0182,162.3238,56.8314,176.0539,0,67.62102,60.00389,30.36729,39,NaN,4.824,15.170001,195.8,25 / 32,1210013,2020-01-13 19:45:23:918
-6.796341,-9.913818,0.157532,-0.343455,-8.55346,-4.784426,2.41733,-4.487517,2.703318,-2.606323,1.221939,1.161743,0,20.6299,35.7651,14.3662,282.4931,75.5499,8.3724,0,68.04985,60.00381,30.367258,41,NaN,4.68,15.170001,214.8,24 / 32,1215012,2020-01-13 19:45:28:917
-5.94281,-11.963257,-1.144913,-0.000247,-9.344625,2.974625,-3.233513,-2.54438,-6.546699,0.333267,-1.265823,-0.034195,0,16.7297,36.2152,-3.6301,88.4863,76.0395,178.3263,0,66.72229,60.00371,30.367212,42,NaN,6.768,15.170001,229.1,24 / 32,1220012,2020-01-13 19:45:33:917
-1.276504,-10.559052,1.41449,-0.136635,-9.305872,-3.090704,-2.142511,-1.373877,3.702398,3.042404,-2.206985,-0.76799,0,7.9788,27.3651,27.2171,143.6146,64.9625,-177.1753,0,66.2531,60.00365,30.36717,43,NaN,4.932,15.170001,203.2,24 / 32,1225012,2020-01-13 19:45:38:917
-2.575363,-4.811783,-2.51799,0.159585,-8.667592,-4.584514,-0.19199,5.499988,9.164695,-0.974167,1.973297,0.383209,0,2.4277,26.265,25.1648,194.7398,78.7005,163.926,0,63.78745,60.003586,30.367142,42,NaN,6.3,15.170001,190.5,24 / 32,1230013,2020-01-13 19:45:43:918
-4.848648,-12.079376,-1.137726,-0.870052,-9.766894,0.145493,-2.77223,-5.508816,-5.551956,-3.601456,0.452103,0.564835,0,9.5779,37.265,0.9674,309.7738,77.1523,4.9077,0,68.16527,60.0035,30.367125,41,NaN,7.056,13.653,212.5,24 / 32,1235013,2020-01-13 19:45:48:918
-0.938919,-7.627365,0.471176,0.282289,-9.759539,-0.917664,-1.88502,1.772935,-4.445913,1.889084,-0.110184,0.508545,0,6.929,26.6647,29.8172,154.747,63.9546,-179.7885,0,68.40869,60.00344,30.367052,40,NaN,3.996,13.653,235.2,24 / 32,1240013,2020-01-13 19:45:53:918
0.619705,-4.847687,-3.111755,-0.29594,-9.210465,-3.354123,4.513916,-7.484749,-7.485622,-1.290726,0.42334,-0.117294,0,8.8287,16.4658,27.6169,144.8909,56.5594,-177.8944,0,63.77159,60.00339,30.366995,41,NaN,4.608,13.653,216.3,25 / 32,1245013,2020-01-13 19:45:58:918
-7.259613,-8.57547,0.638763,0.196668,-9.135949,-3.558953,3.273808,-8.068889,3.371219,-3.414856,2.315415,-0.839188,0,6.8283,33.1146,-3.7827,309.5446,73.1115,-0.3376,0,62.67414,60.003334,30.36694,40,NaN,3.78,13.653,215.3,25 / 32,1250013,2020-01-13 19:46:03:918
1.493591,-13.025085,-8.732147,-0.02904,-9.313952,3.069177,-1.292345,0.693482,-2.135167,0.570282,-0.851425,-0.058701,0,20.1782,36.3144,10.6186,92.7109,86.4207,-159.5606,0,63.34192,60.00325,30.366884,39,NaN,6.732,13.653,215,26 / 32,1255013,2020-01-13 19:46:08:918
8.273972,-6.978531,-7.28006,0.302331,-8.797491,-4.322398,3.147883,-2.686895,-1.004465,-0.07579,-1.695831,0.060791,0,16.478,28.5141,28.5675,146.8268,70.324,173.2815,0,66.40633,60.003174,30.366877,41,NaN,2.844,13.653,214.8,26 / 32,1260012,2020-01-13 19:46:13:917
-0.904205,-1.737625,5.045288,-0.504193,-8.361221,-5.099621,-4.267815,1.763006,6.287505,-0.953751,2.374359,0.340958,0,21.6782,33.7662,13.6169,122.5651,76.972,164.6107,0,65.74747,60.003098,30.36684,40,NaN,4.284,13.653,192,26 / 32,1265014,2020-01-13 19:46:18:919
-1.187927,-14.915314,-6.817978,0.078727,-9.242023,3.278596,0.569762,-3.577661,-9.046022,1.297333,-0.32164,-0.154572,0,14.8285,35.1151,2.8168,295.8189,81.7719,2.5496,0,64.34633,60.003033,30.366776,39,NaN,7.056,13.653,222.3,26 / 32,1270013,2020-01-13 19:46:23:918
-2.455658,-9.190765,-10.053741,-0.347727,-9.445489,-2.613851,-0.158948,0.074386,8.11469,2.66069,-2.425003,-0.715973,0,10.3287,30.2658,26.767,133.4425,63.6206,-177.7147,0,68.02016,60.002975,30.366703,39,NaN,3.888,13.653,221.9,26 / 32,1275012,2020-01-13 19:46:28:917
1.558228,-1.346176,1.288788,-0.033978,-9.099523,-3.656216,0.617748,7.104911,4.098477,2.933228,0.675095,1.150909,0,8.9294,26.7654,26.1169,153.0163,72.1084,178.8184,0,66.35033,60.0029,30.36666,41,NaN,5.364,4.5509996,202.4,26 / 32,1280013,2020-01-13 19:46:33:918
-2.977585,-14.4245,-8.23056,-0.6826,-9.701902,1.255999,-1.858685,-5.212409,-6.410704,-2.602417,1.036392,0.678101,0,14.18,36.6653,-5.5832,288.3031,80.8252,5.1672,0,65.55794,60.002827,30.366589,41,NaN,8.1,6.068,216.1,26 / 32,1285013,2020-01-13 19:46:38:918
-0.734222,-8.844818,-2.625732,-0.086604,-9.51915,-2.355563,-1.888162,-0.339534,9.902032,2.979569,-0.822845,-0.746155,0,7.3273,27.4139,30.7663,149.6405,63.9121,-176.1439,0,65.38388,60.00274,30.366554,41,NaN,2.952,4.5509996,199.5,25 / 32,1290013,2020-01-13 19:46:43:918
-2.238983,-12.115295,-18.211975,0.268097,-8.581769,-4.738327,2.436757,7.874799,8.787678,1.130615,1.347107,0.891159,0,12.1277,25.3159,23.2162,127.1039,60.9962,177.7574,0,66.00003,60.00268,30.366556,41,NaN,5.652,4.5509996,217.8,25 / 32,1295013,2020-01-13 19:46:48:918
4.130798,-18.922012,2.821076,-0.844904,-9.769265,0.134052,-1.564217,-2.172576,4.490647,-1.655395,0.436646,0.61792,0,17.7277,32.5653,-4.6326,282.1232,74.0543,1.3923,0,60.64249,60.002605,30.366503,40,NaN,5.22,4.5509996,213.1,25 / 32,1300013,2020-01-13 19:46:53:918
-1.268127,-8.57547,-1.025207,-0.05507,-9.657511,1.702891,-2.396466,2.069776,-3.130023,1.86406,-1.439102,0.613831,0,10.6277,27.6657,25.3677,134.6097,66.2693,-178.7397,0,64.63437,60.002502,30.366446,41,NaN,4.716,4.5509996,186.5,25 / 32,1305013,2020-01-13 19:46:58:918
-6.160675,-10.815231,6.250778,0.380357,-8.685513,-4.537354,4.456764,-9.745219,-8.622618,-1.12738,0.699768,-0.214584,0,14.0305,19.8654,32.5668,135.2628,56.0534,-177.3663,0,66.86119,60.00245,30.366413,38,NaN,3.096,4.5509996,187.3,26 / 32,1310013,2020-01-13 19:47:03:918
-2.751327,-11.201904,-2.620941,-0.259753,-9.50333,-2.406165,-3.357868,-1.311917,2.373588,-3.584427,2.072357,-0.782196,0,24.3805,34.4162,16.4627,248.5455,80.1815,27.6051,0,68.93737,60.002377,30.366362,36,NaN,4.572,4.5509996,217.1,27 / 32,1315012,2020-01-13 19:47:08:917
0.367111,-16.575684,-9.59166,0.323311,-9.325196,3.017709,-5.319889,-4.368876,-4.890936,-0.05751,-1.160355,-0.05249,0,18.9789,35.614,-4.3808,61.8735,88.0962,-130.9688,0,66.61786,60.002308,30.366266,36,NaN,7.02,4.5509996,226.2,27 / 32,1320013,2020-01-13 19:47:13:918
-1.155594,-7.39273,3.479492,-0.088494,-9.790236,0.560226,-0.514733,-1.213589,-1.740522,2.885117,-0.647247,-0.833328,0,15.0284,27.3148,29.6677,130.3716,64.0541,-176.4958,0,64.79311,60.002243,30.366215,38,NaN,4.32,6.068,201.8,27 / 33,1325013,2020-01-13 19:47:18:918
-3.195465,-12.525894,5.132675,0.417475,-8.661184,-4.58039,1.589985,-3.171806,2.649434,-0.475082,-0.522797,-0.517303,0,14.8285,23.0133,30.7678,130.343,60.1384,-176.1233,0,66.24744,60.002186,30.366165,38,NaN,4.608,6.068,234.8,27 / 33,1330012,2020-01-13 19:47:23:917
-0.773727,-10.737427,-14.882843,0.334686,-8.47256,-4.926874,0.376562,4.560782,-0.886955,1.014328,1.627258,0.763153,0,11.9293,24.5163,31.0165,99.782,60.6032,175.0951,0,64.41359,60.002083,30.366116,43,NaN,7.236,6.068,201.3,26 / 33,1335013,2020-01-13 19:47:28:918
4.143967,-20.11911,2.848618,-0.811221,-9.724311,-0.97472,2.497596,-5.268318,2.249966,-3.067413,0.155777,0.503052,0,10.8795,38.0157,11.0672,322.5471,70.4061,0.1476,0,65.46762,60.00201,30.366076,42,NaN,5.328,6.068,196.4,24 / 33,1340013,2020-01-13 19:47:33:918
1.206284,-9.72229,-2.388702,-0.315109,-9.654928,1.689215,-1.581793,2.135296,-1.267236,2.394196,-2.113937,0.048187,0,5.5283,26.4648,28.067,160.3313,62.0464,177.0865,0,65.5161,60.001904,30.366047,42,NaN,5.796,13.653,200.7,23 / 33,1345013,2020-01-13 19:47:38:918
3.628021,-15.752075,-13.327805,-0.158767,-8.921264,-4.068934,2.692439,-12.385149,-14.310432,0.426132,-0.631638,0.096481,0,17.8787,26.265,25.6668,113.0676,56.5835,179.3781,0,63.68309,60.001854,30.366016,43,NaN,4.104,15.170001,218.3,23 / 33,1350013,2020-01-13 19:47:43:918
3.033051,-18.529358,-2.660446,-0.754482,-9.769981,-0.385491,1.574642,-4.374101,6.486437,-3.135589,-0.000992,0.140854,0,15.8295,38.765,-5.1315,296.1999,69.998,3.6194,0,65.55353,60.0018,30.365997,44,NaN,4.392,15.170001,218.3,23 / 33,1355013,2020-01-13 19:47:48:918
-1.574585,-8.847198,0.054581,-0.358562,-9.797535,0.223857,-0.243206,2.605784,-0.132938,2.223587,-0.528122,0.448898,0,10.6277,39.0152,14.6179,270.9119,87.5296,58.0227,0,66.78389,60.00174,30.365927,42,NaN,5.58,15.170001,207.6,24 / 33,1360013,2020-01-13 19:47:53:918
1.492386,-9.535538,-10.477509,0.511021,-8.154974,-5.422696,0.569909,7.274439,9.607367,1.711899,0.490631,0.835236,0,-4.8218,28.5629,25.8179,203.6065,56.261,-174.6165,0,67.54093,60.001656,30.365896,43,NaN,6.552,13.653,196.4,24 / 33,1365013,2020-01-13 19:47:58:918
-0.577393,-10.804459,-4.869095,-0.058099,-9.361689,2.9199,-0.877002,-0.38526,-4.889298,0.040848,-1.153427,-0.175705,0,-1.7212,46.1151,3.3676,6.6654,72.6742,1.1399,0,64.95615,60.00156,30.365843,44,NaN,6.3,13.653,218,27 / 33,1370013,2020-01-13 19:48:03:918
3.236557,-15.906509,-7.139999,0.030289,-8.77668,-4.374854,0.950694,-4.823992,-5.340054,-1.0569,0.352142,-0.202164,0,-21.7712,38.3652,25.4669,255.7148,63.5049,-179.6033,0,64.8212,60.001514,30.365776,43,NaN,3.276,13.653,207.7,26 / 33,1375013,2020-01-13 19:48:08:918
-0.940124,-5.817337,1.029022,-0.636709,-8.065501,-5.541902,-3.332776,0.360575,6.616938,-2.477249,1.407639,1.612885,0,-3.0716,33.0154,39.4165,210.115,55.331,173.446,0,67.06403,60.00149,30.365631,42,NaN,4.356,13.653,266,27 / 33,1380012,2020-01-13 19:48:13:917
-1.053848,-13.005936,-8.817139,-0.074527,-9.396318,2.806072,-0.439445,-0.058214,-2.545076,2.257675,-0.221329,-0.029404,0,4.8782,51.8143,4.567,345.2916,73.367,1.5214,0,68.64507,60.00142,30.365562,41,NaN,7.524,13.653,213,27 / 33,1385013,2020-01-13 19:48:18:918
0.823212,-8.917831,3.681793,0.053846,-9.111663,-3.625616,5.490787,3.477418,2.080382,1.592758,-0.5867,-0.567184,0,-7.6721,38.1653,36.2183,200.9419,68.2998,-179.1491,0,66.59993,60.001335,30.365524,41,NaN,4.104,13.653,203.1,27 / 32,1390013,2020-01-13 19:48:23:918
0.108536,-1.340179,5.479843,-0.716835,-8.864857,-4.131688,-3.841034,1.965614,6.675175,-2.52182,2.0793,1.452911,0,-24.8718,38.8657,30.0171,258.2691,64.6841,170.1573,0,65.93466,60.001297,30.365454,41,NaN,4.86,15.170001,250.4,25 / 31,1395013,2020-01-13 19:48:28:918
-7.665436,-10.796082,11.065521,-0.187514,-9.666904,1.638961,-4.081051,-2.578647,5.904983,-2.020966,0.5746,0.400955,0,-19.4717,49.8642,3.9169,51.8761,80.3158,6.5268,0,62.97766,60.001312,30.365267,41,NaN,6.012,16.687,272,24 / 32,1400016,2020-01-13 19:48:33:921
-2.264114,-6.790588,1.641937,-0.066811,-9.594184,2.029175,-1.031726,2.103699,-1.155631,1.868668,-1.495209,0.116364,0,-21.7209,51.0147,2.3178,58.9037,78.0516,1.8858,0,63.38683,60.001312,30.365105,41,NaN,4.716,15.170001,264.8,24 / 32,1405013,2020-01-13 19:48:38:918
-7.707336,-11.647217,8.556396,0.527987,-8.646298,-4.59708,4.303534,-3.641862,-4.752247,-1.206741,0.01091,-0.256485,0,-25.1709,38.7161,21.666,261.3839,61.8453,-173.4481,0,63.30873,60.001305,30.364958,43,NaN,5.616,15.170001,242.5,24 / 32,1410013,2020-01-13 19:48:43:918
2.796036,-1.377289,4.159439,-0.349654,-8.211826,-5.349208,-3.817773,2.011542,6.670439,-0.71051,1.599915,0.228394,0,-20.4712,34.9655,31.2683,255.5133,56.8638,176.2602,0,61.92005,60.00133,30.364866,45,NaN,0.972,15.170001,311.4,23 / 32,1415013,2020-01-13 19:48:48:918
-3.694656,-13.331543,5.989807,0.043637,-9.44591,2.635007,-6.346971,-3.540642,-3.654545,-2.472992,1.082565,0.646683,0,-16.3239,49.7131,-2.9358,57.1636,74.4111,-0.9488,0,60.96892,60.001343,30.364796,44,NaN,3.132,15.170001,282.5,23 / 32,1420013,2020-01-13 19:48:53:918
-1.078979,-8.819672,-0.589462,-0.478167,-9.794882,-0.045091,-0.388206,2.565901,1.181489,2.235123,0.606918,-0.025681,0,-24.4217,51.3641,0.3677,355.1149,87.1928,95.3871,0,59.36705,60.001343,30.364674,44,NaN,2.16,16.687,319.8,20 / 32,1425012,2020-01-13 19:48:58:917
-4.488327,-5.661712,7.002548,0.164816,-8.609037,-4.693368,0.075607,-7.374811,2.884464,-1.179581,0.301544,-0.27211,0,-24.6201,43.718,15.6174,284.3836,61.3874,-177.9888,0,62.7645,60.001377,30.364561,46,NaN,2.088,15.170001,306.3,21 / 32,1430013,2020-01-13 19:49:03:918
2.025101,0.647003,5.101563,-0.358383,-8.345729,-5.137193,-5.593606,0.427845,7.388206,-1.572311,2.247772,0.320892,0,-10.7712,25.5157,29.5181,229.4771,58.3236,176.0094,0,62.43206,60.001404,30.364382,46,NaN,1.836,16.687,291.5,21 / 32,1435013,2020-01-13 19:49:08:918
4.182266,-15.491119,-2.690369,-0.963596,-9.744479,-0.535722,-1.734535,-3.875555,8.651627,-3.079315,-0.753784,0.900208,0,-5.9692,45.0668,21.2158,270.3512,83.5449,119.0724,0,60.1632,60.001328,30.364231,48,NaN,6.48,16.687,208.4,21 / 32,1440013,2020-01-13 19:49:13:918
-2.192291,-7.445404,2.254852,-0.056704,-9.674616,1.602807,-2.715503,2.015294,-2.230718,1.815231,-0.996307,-0.016266,0,-11.9202,46.7163,16.6168,238.3623,66.2963,178.9208,0,61.24495,60.0013,30.364132,50,NaN,3.168,18.203999,235.4,22 / 32,1445013,2020-01-13 19:49:18:918
-7.886902,-12.475616,18.84906,0.072849,-8.871214,-4.179313,3.767299,4.0482,4.864543,1.042023,-0.645126,-0.267136,0,-20.8221,37.3657,30.8685,238.3713,64.7711,-179.0014,0,62.19948,60.00126,30.364002,49,NaN,1.044,18.203999,217.6,22 / 32,1450013,2020-01-13 19:49:23:918
-0.363113,-3.624252,-1.464539,0.06613,-8.600509,-4.711397,2.984512,7.538423,7.834032,-0.855926,2.116043,0.565903,0,-17.0212,31.7642,35.6674,238.7814,57.5041,175.5456,0,60.67586,60.001274,30.36387,52,NaN,2.808,18.203999,249.1,22 / 32,1455012,2020-01-13 19:49:28:917
4.317551,-21.379654,-1.924225,-0.123651,-9.523427,2.336543,-4.897353,-4.276099,-5.905583,-3.69397,0.692139,0.832397,0,-11.9217,48.8144,8.316,29.9483,76.1964,3.0293,0,61.72766,60.00126,30.363737,55,NaN,1.692,18.203999,265.1,20 / 32,1460013,2020-01-13 19:49:33:918
-6.919647,-10.802063,-2.49884,0.2179,-9.287105,3.142068,0.369734,-0.936624,-7.067533,0.115601,-1.751221,0.169983,0,-16.8213,49.1653,1.4175,47.5647,71.2662,-3.9671,0,63.54433,60.00124,30.363646,56,NaN,1.62,18.203999,246.8,20 / 32,1465013,2020-01-13 19:49:38:918
-1.263336,-9.824036,-7.361465,-0.292687,-9.771858,-0.771695,-0.092986,0.498997,-2.637002,2.980621,-2.748306,-0.716507,0,-21.8201,37.5656,27.417,260.0112,65.9048,176.5989,0,62.88608,60.00118,30.363434,58,NaN,4.752,19.720999,239.1,20 / 32,1470013,2020-01-13 19:49:43:918
-0.543884,-20.127487,-11.092819,0.404492,-8.683887,-4.538381,2.639854,-3.764893,-2.244515,0.348007,-0.227005,0.029724,0,-21.7209,34.9152,24.0677,249.4796,66.8712,179.8264,0,62.61945,60.00111,30.363243,61,NaN,4.86,15.170001,252.2,20 / 32,1475012,2020-01-13 19:49:48:917
-1.518326,-3.462646,2.906082,-0.477495,-8.203509,-5.352086,-1.117459,-1.889866,2.315129,-3.015564,1.964417,0.544601,0,-15.2206,44.6152,24.1165,42.3348,80.8998,10.4966,0,63.3812,60.001045,30.363026,55,NaN,5.148,15.170001,253.3,20 / 32,1480013,2020-01-13 19:49:53:918
-5.735702,-13.532654,0.738129,-0.41863,-9.591931,1.997494,-6.216046,-2.790679,-4.853195,-0.07579,-0.537704,0.193771,0,-12.5717,48.7656,4.4174,34.2409,71.484,-0.805,0,61.25356,60.00102,30.362877,52,NaN,5.04,15.170001,259.1,20 / 32,1485013,2020-01-13 19:49:58:918
1.484009,-8.32167,1.615601,-0.386321,-9.797131,-0.193353,0.531734,1.503205,-1.121858,3.643051,-3.554001,-0.577835,0,-6.6711,41.3162,23.8159,223.5997,63.7492,-176.3805,0,63.84784,60.001003,30.362772,52,NaN,3.924,16.687,255.6,20 / 32,1490013,2020-01-13 19:50:03:918
6.556122,-23.087921,-13.187744,0.485046,-8.751637,-4.398178,2.763191,-6.126272,-7.674638,2.058289,0.537491,0.765106,0,-16.272,34.8145,32.3685,230.5058,59.4723,-175.0654,0,65.69995,60.000988,30.36266,55,NaN,4.536,15.170001,215.2,20 / 32,1495012,2020-01-13 19:50:08:917
-2.613663,-14.572937,-10.931213,-0.111851,-9.160505,3.499002,-1.715237,-2.511495,-6.585081,-0.276245,-0.536636,0.181335,0,-11.0718,48.3154,-2.3331,35.3382,69.0851,1.8309,0,63.49658,60.000923,30.362574,52,NaN,2.772,15.170001,245.4,19 / 32,1500012,2020-01-13 19:50:13:917
-6.396499,-9.892273,18.588087,-0.578449,-8.749166,-4.391795,0.203555,-7.716306,4.479458,0.474594,-0.336197,-0.240509,0,-16.3223,39.8148,30.217,251.5389,63.1468,172.4967,0,62.87494,60.00088,30.362488,51,NaN,2.16,15.170001,272,20 / 32,1505013,2020-01-13 19:50:18:918
-0.613312,-1.652634,5.112335,-0.265547,-8.407444,-5.041305,-5.051734,0.372364,5.962896,-2.65036,2.363358,1.498184,0,-5.6213,46.2662,22.7661,25.3457,77.4592,9.3613,0,63.90978,60.000805,30.36233,52,NaN,6.048,16.687,232.7,20 / 32,1510013,2020-01-13 19:50:23:918
1.515137,-10.547089,-8.539413,0.156264,-9.355926,2.934729,0.483635,-0.014152,-7.00231,2.102844,-0.906998,-0.041473,0,-9.7229,48.114,6.5231,41.2968,85.5882,2.265,0,66.53525,60.00073,30.36214,51,NaN,7.848,15.170001,238.3,22 / 32,1515013,2020-01-13 19:50:28:918
1.766525,-13.050232,-7.829529,-0.374848,-9.046118,-3.767977,-0.450288,1.655951,-4.5273,-0.296829,0.466476,-0.455154,0,-18.721,40.3137,25.618,252.7111,67.2865,174.3188,0,63.7934,60.000675,30.362,49,NaN,5.652,15.170001,230,21 / 32,1520012,2020-01-13 19:50:33:917
-5.030609,-13.365067,-4.075424,0.338059,-9.434192,2.655583,-6.227269,-2.311674,-4.389747,-0.419693,-0.819656,0.19838,0,-18.5211,50.7156,-2.4826,62.4395,74.1584,-7.2548,0,64.11731,60.000614,30.361841,47,NaN,6.12,15.170001,248.6,23 / 32,1525012,2020-01-13 19:50:38:917
2.168747,-15.697021,-13.305069,-0.691004,-8.750926,-4.371977,0.141683,4.090284,-0.410402,1.787537,0.774338,0.693558,0,-12.7716,36.1649,34.6176,235.0579,63.1696,171.0185,0,62.76418,60.000572,30.361723,47,NaN,2.988,15.170001,214.1,24 / 32,1530013,2020-01-13 19:50:43:918
-0.946106,-15.311554,-6.317581,-0.149049,-9.369504,2.891465,-5.038922,-3.035677,-4.338738,-0.34317,-0.482849,0.113159,0,-9.4711,51.3153,-0.2319,31.9305,74.3722,4.3744,0,59.64635,60.00054,30.361616,48,NaN,6.156,15.170001,227.2,23 / 32,1535013,2020-01-13 19:50:48:918
2.500351,-13.75412,-9.777206,-0.178471,-9.216289,-3.346425,2.346326,-5.385259,-9.609642,-1.263382,0.913895,-0.236603,0,-10.9711,42.215,28.7674,225.4989,70.018,176.9472,0,64.7489,60.00052,30.361557,46,NaN,2.412,15.170001,237.4,23 / 32,1540013,2020-01-13 19:50:53:918
4.981934,-17.898483,0.752487,-0.386104,-9.774802,0.688885,-1.30189,-4.179932,-6.812347,-2.786713,0.942474,0.513351,0,12.8281,46.7651,1.5656,266.2308,85.3811,29.2696,0,65.38269,60.000446,30.361452,41,NaN,5.22,15.170001,249.1,24 / 32,1545012,2020-01-13 19:50:58:917
-0.730621,-7.775802,1.491104,-0.0166,-9.785976,-0.636231,-1.147263,-0.353445,-3.617174,2.187012,-1.12236,0.261063,0,6.8787,44.0155,20.668,160.5604,86.2789,178.5055,0,63.4438,60.000378,30.361496,38,NaN,3.564,15.170001,248.5,24 / 33,1550012,2020-01-13 19:51:03:917
6.678223,-21.476624,-20.04834,0.009351,-8.977459,-3.946584,3.898084,-12.094637,-14.091589,2.749115,0.531113,1.201691,0,4.0787,39.2151,30.6168,130.5945,57.5741,-176.5798,0,63.36283,60.000324,30.361582,41,NaN,7.74,15.170001,148.2,25 / 33,1555013,2020-01-13 19:51:08:918
3.113266,-19.410416,-5.62088,-0.9953,-9.730413,-0.70627,-0.974088,-4.69159,-6.366479,-3.040771,-1.098572,0.505005,0,12.7777,50.6653,4.3671,146.6295,82.8511,125.3597,0,64.20714,60.000286,30.361702,43,NaN,5.76,15.170001,140.8,25 / 33,1560013,2020-01-13 19:51:13:918
0.952499,-7.249069,0.401733,-0.383447,-9.796129,0.24331,-0.893408,-2.305831,-0.890763,2.887238,-0.559372,-0.444336,0,0.3784,45.1645,24.617,184.6621,73.6972,177.8789,0,61.53685,60.000183,30.361834,45,NaN,5.328,15.170001,157.9,25 / 33,1565013,2020-01-13 19:51:18:918
0.221069,-4.373642,-3.887466,-0.423883,-8.687007,-4.530633,4.147188,-3.679221,-6.137772,-0.827866,-0.698914,-0.756988,0,-9.5215,39.3158,31.0669,236.0551,68.9086,165.6809,0,61.87418,60.000164,30.361874,47,NaN,0,15.170001,,26 / 33,1570012,2020-01-13 19:51:23:917
-3.01709,-10.57222,-0.469757,0.077079,-9.21282,-3.359821,-4.545155,0.370476,5.82165,-3.698395,1.848312,-0.789124,0,-0.6714,36.3663,29.2679,181.2846,69.9588,-178.6858,0,60.08164,60.000153,30.361864,47,NaN,0,13.653,,27 / 33,1575013,2020-01-13 19:51:28:918
-2.143204,-16.151917,-0.706772,-0.252936,-9.383054,2.839843,0.378191,-5.634957,-6.905454,-0.126389,-0.200546,0.443573,0,14.0289,43.3655,-13.6307,260.9229,73.0983,5.0897,0,58.83092,60.000134,30.361856,49,NaN,4.788,15.170001,157.9,28 / 33,1580013,2020-01-13 19:51:33:918
-1.116089,-12.944885,-10.368576,-0.078705,-9.528402,-2.318135,-0.039458,-1.587284,4.965853,2.099121,-2.343857,-0.975189,0,7.0786,35.7147,32.4677,155.1396,61.0982,176.5571,0,62.26123,60.000034,30.361933,48,NaN,5.544,15.170001,170.1,25 / 33,1585012,2020-01-13 19:51:38:917
2.113678,-1.842972,3.975083,-0.075502,-8.018186,-5.645651,-4.461647,0.302241,6.284642,-3.200561,1.999924,1.488068,0,7.1289,35.2676,33.0139,161.9741,70.3494,178.8304,0,64.14447,59.999954,30.362005,48,NaN,7.812,15.170001,159.2,25 / 33,1590013,2020-01-13 19:51:43:918
-5.244903,-13.891785,-2.544327,0.012611,-9.308532,3.085688,-5.746379,-2.984749,-4.816758,-0.093018,-0.593643,0.313431,0,12.0285,39.2654,-7.4829,295.2528,71.66,-0.2342,0,66.01012,59.999817,30.362074,46,NaN,3.276,16.687,157.4,25 / 33,1595013,2020-01-13 19:51:48:918
-1.544662,-8.459351,-2.707138,-0.055535,-9.668826,-1.637409,-1.613467,1.155913,-2.525663,3.748322,-3.423157,-1.07727,0,10.6277,35.0647,20.4208,144.0566,80.3828,178.0575,0,64.84748,59.99977,30.36211,42,NaN,4.644,19.720999,161.5,26 / 33,1600013,2020-01-13 19:51:53:918
-0.46846,-11.63765,-16.41513,-0.419933,-9.092581,-3.649523,2.495124,8.522219,8.602114,1.898315,-0.138062,0.754623,0,-1.5213,29.4632,28.8193,187.7227,54.9219,-177.9556,0,64.96419,59.999683,30.362173,40,NaN,7.776,21.237999,147.9,28 / 32,1605013,2020-01-13 19:51:58:918
-0.304459,-1.358139,4.985443,-0.24464,-8.168449,-5.420973,-1.335169,-1.61978,1.864018,-3.008285,2.428513,0.150085,0,2.4796,36.116,19.4656,184.3392,74.9141,171.9277,0,60.85443,59.999577,30.362307,41,NaN,6.156,21.237999,163.9,26 / 32,1610012,2020-01-13 19:52:03:917
-0.988007,-15.363022,-9.515045,0.097519,-9.323922,3.037328,-4.349123,-4.813923,-5.42969,-0.227417,-1.555756,0.025635,0,3.1784,45.2164,-6.0333,339.0498,71.948,-1.8389,0,65.6505,59.999496,30.36227,40,NaN,5.508,21.237999,204.5,26 / 32,1615013,2020-01-13 19:52:08:918
-2.448471,-8.466522,5.215287,-0.446186,-9.719663,1.224522,-1.711339,2.020733,1.148801,2.229797,-2.151764,-0.474152,0,6.8298,43.4158,8.2184,319.1914,82.3629,20.0205,0,62.77262,59.999428,30.362152,37,NaN,6.228,18.203999,207.4,24 / 32,1620013,2020-01-13 19:52:13:918
-1.958847,-11.173172,-1.481293,-0.053432,-9.339754,-2.9894,-2.61288,-4.673532,8.588039,2.537827,-2.819321,-0.866165,0,-4.422,33.7143,31.8176,182.5613,61.7049,-173.8506,0,67.19097,59.999317,30.362091,39,NaN,3.708,16.687,176.8,24 / 32,1625013,2020-01-13 19:52:18:918
-0.717453,-9.035156,-10.30513,-0.314385,-9.111674,-3.612331,1.741619,7.171556,5.576064,0.843536,-0.276367,-0.000992,0,-2.2217,32.6645,35.8673,186.6383,56.2743,-178.9742,0,60.49011,59.999264,30.36203,40,NaN,6.732,15.170001,192.5,22 / 32,1630013,2020-01-13 19:52:23:918
1.314026,-17.435211,-2.910644,-0.238114,-9.30302,3.09314,-1.521747,-4.836756,-7.741387,-2.979355,0.974258,0.163406,0,4.4281,47.4152,-2.034,343.1802,71.5579,4.402,0,67.32414,59.99921,30.362,43,NaN,5.184,15.170001,190.3,24 / 32,1635013,2020-01-13 19:52:28:918
-0.894638,-7.049164,0.246109,-0.442617,-9.725161,-1.181408,0.467448,1.515438,-3.004858,1.803864,0.66568,-0.115875,0,4.2297,49.3637,19.4687,192.9173,82.6086,159.4615,0,63.31087,59.99914,30.361965,41,NaN,4.932,15.170001,180.5,23 / 31,1640012,2020-01-13 19:52:33:917
-3.72937,-8.193588,3.891281,-0.278648,-9.277424,-3.165777,2.109762,-7.005363,1.061729,-3.012726,1.322601,0.067535,0,9.079,47.6151,16.3177,274.5163,85.9834,66.6611,0,64.3311,59.999092,30.361969,40,NaN,3.24,13.653,162.7,23 / 33,1645013,2020-01-13 19:52:38:918
-2.037857,-8.300125,-1.940994,0.105451,-9.613896,1.931908,-2.927801,1.356683,-2.85108,2.399887,-2.156555,-0.036148,0,6.1783,48.9151,3.4698,335.7299,78.6213,-3.1243,0,61.35962,59.99901,30.36199,38,NaN,0.648,13.653,179.1,25 / 33,1650012,2020-01-13 19:52:43:917
4.934052,-21.83934,-16.430695,-0.135521,-8.933517,-4.042809,3.489845,-7.06779,-10.09869,1.326798,0.115646,-0.030472,0,2.9785,35.3119,33.2703,173.1256,65.6391,178.0801,0,62.1185,59.998955,30.361994,42,NaN,7.128,13.653,170.9,26 / 33,1655013,2020-01-13 19:52:48:918
-4.086105,-11.742996,10.712372,-0.423064,-9.760533,0.850526,1.156612,-4.12544,6.472885,-3.017868,-0.799942,0.348938,0,10.1791,50.6653,-2.3331,261.0157,84.4412,26.4464,0,64.63684,59.998863,30.362051,42,NaN,6.732,13.653,173.5,26 / 33,1660013,2020-01-13 19:52:53:918
0.335983,-6.016067,-1.504044,-0.600252,-8.656362,-4.569189,1.791531,1.839813,4.786582,-1.391571,1.599396,0.444458,0,13.0295,37.7655,29.5654,162.5943,66.1585,164.4324,0,67.48088,59.99877,30.362114,42,NaN,3.492,15.170001,157.5,27 / 33,1665014,2020-01-13 19:52:58:919
-1.61528,-10.648834,0.969162,-0.504381,-9.594982,1.962727,-4.065309,-0.418934,-2.331367,-0.336426,-1.318191,0.139618,0,14.4287,47.9141,-9.7321,269.0383,77.0511,5.3451,0,66.17047,59.998734,30.362202,43,NaN,3.06,15.170001,140.7,28 / 33,1670012,2020-01-13 19:53:03:917
0.880676,-14.031845,-1.447784,-0.562694,-9.043526,-3.750789,-1.013032,-1.480733,-3.767727,-1.034348,0.885483,0.856888,0,12.7792,45.5658,13.0157,83.3304,71.655,176.5931,0,64.72078,59.99871,30.362274,42,NaN,0.9,13.653,173.3,29 / 33,1675013,2020-01-13 19:53:08:918
-0.730621,-10.731445,-0.091461,-0.411822,-9.59889,1.965226,-0.609338,-0.890392,-2.290663,0.420441,-0.784851,0.033264,0,14.328,47.3648,-11.0825,251.9717,78.1851,11.8353,0,64.81557,59.998695,30.36238,45,NaN,2.592,13.653,114.4,29 / 33,1680012,2020-01-13 19:53:13:917
-4.082504,-10.992416,-0.390747,-0.755842,-9.642673,1.617999,1.063946,-4.593652,0.299934,-0.855576,0.075531,0.427597,0,10.4279,49.4659,1.8662,314.0068,78.3389,11.6178,0,64.92392,59.998703,30.362389,44,NaN,0,13.653,,29 / 33,1685012,2020-01-13 19:53:18:917
-0.099762,-11.67955,-0.498474,-1.086898,-9.623669,-1.540787,-0.420112,0.07203,-1.317436,1.171814,-0.120666,-0.03331,0,2.179,41.8152,26.6174,212.7931,71.7998,159.7369,0,66.31021,59.998684,30.362429,45,NaN,0,13.653,,29 / 33,1690013,2020-01-13 19:53:23:918
-0.115326,-11.215073,-4.61412,-0.589326,-9.782663,0.350115,1.172454,-1.517118,-1.501576,-0.337845,-0.820709,-0.01236,0,2.2278,46.5652,14.8178,281.1932,86.8402,80.8777,0,65.6559,59.998665,30.362429,45,NaN,0.576,13.653,202.1,29 / 33,1695013,2020-01-13 19:53:28:918
-1.29805,-9.831223,0.219788,-0.666492,-9.733101,0.996454,-0.280805,0.021247,-0.793884,0.118088,-0.233047,-0.089951,0,-6.1218,48.7656,8.1162,1.9434,82.9784,33.7771,0,66.22199,59.998642,30.362396,44,NaN,1.836,13.653,267.7,28 / 34,1700013,2020-01-13 19:53:33:918
-1.520721,-7.453781,0.806366,-0.594858,-9.779353,0.42519,-1.347478,2.274984,-0.417731,1.773331,-0.899902,-0.33815,0,4.2786,48.0148,16.7191,214.668,75.9112,155.504,0,67.66429,59.998623,30.362345,42,NaN,5.004,13.653,218.8,30 / 34,1705013,2020-01-13 19:53:38:918
-1.118484,-11.915375,-3.985641,-0.505621,-9.792255,-0.162682,-2.03095,-3.218655,-4.794337,-3.631286,-0.181564,0.064514,0,5.0293,52.2141,0.0671,141.6593,86.8952,107.8355,0,67.51518,59.99855,30.3623,43,NaN,6.48,13.653,188.6,31 / 34,1710013,2020-01-13 19:53:43:918
0.619705,-3.378845,0.273651,-0.317356,-8.560821,-4.773052,1.689921,5.504432,8.313231,1.188324,0.824936,0.458481,0,11.8286,27.8152,42.9169,162.7886,58.3159,173.5116,0,66.82221,59.99849,30.362267,44,NaN,5.472,13.653,234.4,30 / 34,1715013,2020-01-13 19:53:48:918
-5.827881,-12.268524,14.266556,-0.586304,-8.855159,-4.172865,3.477232,2.239696,6.360233,1.891037,-1.104614,-0.978912,0,-9.7214,39.3646,31.8176,233.5581,64.5519,172.0021,0,66.04518,59.998413,30.362232,45,NaN,3.996,13.653,217.3,30 / 33,1720013,2020-01-13 19:53:53:918
-5.120392,-14.64476,-0.065125,-0.006564,-9.412683,2.751679,-3.899078,-4.949665,-4.050863,-0.616241,-0.303696,0.28183,0,2.6779,49.1165,4.5181,347.6568,78.8369,1.5229,0,65.86342,59.99837,30.362186,43,NaN,5.148,13.653,185.7,28 / 33,1725013,2020-01-13 19:53:58:918
4.020661,-16.651108,-18.514847,-0.145227,-8.615711,-4.681754,1.448415,5.483504,8.631601,1.539688,1.149139,0.61348,0,-15.4205,35.0647,33.9172,245.0812,58.026,173.5555,0,65.63903,59.99833,30.362099,42,NaN,5.544,13.653,231.5,29 / 33,1730012,2020-01-13 19:54:03:917
-0.874283,-8.755035,-1.948166,-0.473068,-9.54832,2.185449,0.102131,1.385453,-2.624972,1.977509,-1.070694,0.046219,0,-12.7213,49.4156,11.3678,321.3569,86.9014,93.9429,0,65.24806,59.99832,30.361954,42,NaN,5.868,13.653,264.3,30 / 33,1735014,2020-01-13 19:54:08:919
0.635269,-1.931549,0.140778,-0.012766,-8.020621,-5.642681,1.766208,6.675423,8.995481,0.467667,1.781021,0.611527,0,-17.421,34.1644,34.5673,242.1321,54.8727,179.8704,0,65.56838,59.998306,30.361818,43,NaN,4.032,13.653,248.4,29 / 34,1740013,2020-01-13 19:54:13:918
1.033905,-11.446106,9.411118,-0.823577,-9.770319,0.181614,4.197356,-10.66703,1.60444,-3.55246,0.20726,0.895416,0,-20.2713,48.465,-7.132,68.764,71.5016,-2.9576,0,66.25693,59.99829,30.361639,43,NaN,9.792,15.170001,273,30 / 34,1745013,2020-01-13 19:54:18:918
-0.381073,-7.533981,-1.15329,-0.407558,-9.734013,-1.119501,-0.280265,-0.714175,8.496844,3.089646,-1.897873,-0.661285,0,-17.572,46.6644,13.0676,269.1865,83.0221,159.9958,0,66.96817,59.99831,30.361414,45,NaN,3.564,15.170001,291.3,30 / 34,1750012,2020-01-13 19:54:23:917
-0.106934,-8.565887,-4.499191,-0.244726,-9.274032,-3.178494,0.289801,-5.903512,5.329733,-2.080627,1.668808,0.093109,0,-12.1216,50.7156,8.2169,281.3354,85.9057,149.3152,0,66.27146,59.99832,30.361292,46,NaN,0.54,15.170001,285.9,30 / 34,1755013,2020-01-13 19:54:28:918
-5.083282,-11.017548,16.229813,-0.832411,-8.771064,-4.306498,0.692229,-0.719716,10.912889,-0.006378,-1.564453,0.317688,0,-22.821,41.2155,19.3161,273.1945,65.0867,176.4965,0,64.01723,59.99832,30.361176,45,NaN,3.24,15.170001,285.2,29 / 34,1760012,2020-01-13 19:54:33:917
4.141571,-19.163818,-0.381165,-0.33552,-9.311001,-3.059913,2.998784,-5.084818,1.677554,-3.43901,2.563812,-0.611755,0,-16.8213,46.5149,2.6169,18.1445,83.4509,56.4054,0,65.51615,59.998344,30.361065,46,NaN,4.896,15.170001,270.6,28 / 33,1765012,2020-01-13 19:54:38:917
-0.21109,-11.217468,-2.046326,-0.149799,-8.873067,-4.173325,5.263371,5.041106,2.424239,0.551285,-0.775253,-0.242096,0,-25.2228,42.6651,20.7169,270.2977,64.7965,177.9443,0,66.85161,59.99838,30.360931,49,NaN,3.384,15.170001,294.7,28 / 33,1770012,2020-01-13 19:54:43:917
-1.087372,-10.380692,-3.140488,-0.670666,-9.655519,-1.578467,2.883896,-6.65167,2.862657,-3.20607,0.49205,0.154175,0,-21.4218,46.0663,1.1169,53.2658,76.3646,9.9013,0,66.25261,59.9984,30.36081,53,NaN,4.86,15.170001,280.9,25 / 33,1775013,2020-01-13 19:54:48:918
4.291214,-6.956985,2.518219,-0.567153,-9.068663,-3.688913,-4.96348,-3.512824,6.267875,0.016357,-1.639023,-0.176941,0,-24.6216,39.7644,22.9675,265.367,67.6301,171.2595,0,65.40358,59.99844,30.360697,52,NaN,6.3,15.170001,295.4,24 / 33,1780014,2020-01-13 19:54:53:919
-4.405731,-11.892624,-5.946487,-0.642038,-9.712948,1.190301,-1.720487,-3.839803,-7.182609,-0.292755,-0.82515,0.325684,0,-15.7211,53.8147,-2.6321,47.5041,72.3808,5.07,0,65.03588,59.99847,30.360563,54,NaN,5.256,15.170001,294,23 / 33,1785013,2020-01-13 19:54:58:918
3.674698,-11.137253,-8.897339,-0.108788,-8.831142,-4.262568,-2.807461,-3.936789,-6.165352,1.720779,0.033279,0.191452,0,-13.121,33.3145,36.4685,215.981,63.4476,-179.5747,0,65.82028,59.998524,30.360437,54,NaN,5.688,15.170001,325.6,25 / 33,1790013,2020-01-13 19:55:03:918
-2.645996,-8.758621,0.195831,-5.981099,-6.946874,-3.483929,3.06031,-5.098289,7.574026,-0.727905,-0.62915,3.764359,0,13.7283,32.515,31.366,211.9095,70.8192,135.0862,5,64.32552,59.99854,30.360361,53,NaN,3.456,16.687,287,25 / 33,1795013,2020-01-13 19:55:08:918
-4.624801,2.975357,13.363953,-3.291142,2.605713,8.862789,-0.909553,0.579006,2.906861,0.359726,1.063568,-0.260391,0,15.4282,-21.5347,-38.0325,204.2577,-13.4906,13.9694,5,64.62511,59.998474,30.360315,53,NaN,4.716,19.720999,173.5,23 / 33,1800013,2020-01-13 19:55:13:918
