ACCELEROMETER_X,ACCELEROMETER_Y,ACCELEROMETER_Z,GRAVITY_X,GRAVITY_Y,GRAVITY_Z,LINEAR_ACCELERATION_X,LINEAR_ACCELERATION_Y,LINEAR_ACCELERATION_Z,GYROSCOPE_X,GYROSCOPE_Y,GYROSCOPE_Z,LIGHT,MAGNETIC_FIELD_X,MAGNETIC_FIELD_Y,MAGNETIC_FIELD_Z,ORIENTATION_Z_azimuth,ORIENTATION_X_pitch,ORIENTATION_Y_roll,PROXIMITY,SOUND_LEVEL,LOCATION_Latitude,LOCATION_Longitude,LOCATION_Altitude,LOCATION_Altitude-google,LOCATION_Speed,LOCATION_Accuracy,LOCATION_ORIENTATION,Satellites_in_range,Time,Date
-0.976028,2.395966,9.983337,-1.862093,2.680961,9.247457,0.476807,0.061585,0.235909,-0.652222,-0.63298,-0.092651,0,10.35,-30.9051,-38.0966,173.6405,-21.2831,17.1227,5,66.30063,60.02052,30.370348,0,NaN,0,77.447,0,0 / 45,18,2020-01-16 19:00:01:653
-0.976028,2.395966,9.983337,-1.862093,2.680961,9.247457,0.476807,0.061585,0.235909,-0.652222,-0.63298,-0.092651,0,10.35,-30.9051,-38.0966,173.6405,-21.2831,17.1227,5,66.30063,60.02052,30.370348,0,NaN,0,77.447,0,0 / 45,2518,2020-01-16 19:00:01:653
-1.648804,-10.323227,-5.459259,0.17604,-9.804785,-0.07474,-1.94783,2.317374,-1.145961,0.748611,0.011871,0.05275,0,-2.3407,46.0861,19.6793,178.1431,83.9281,-172.8924,0,57.43015,60.02052,30.370348,0,NaN,0,77.447,0,6 / 45,5018,2020-01-16 19:00:06:653
2.823563,-6.930649,-1.317291,-1.520654,-9.188341,-3.071219,2.103441,0.518112,1.20189,2.069,-3.027695,0.099091,0,0.7553,30.2582,40.5823,195.932,55.9846,171.8178,0,66.70078,60.02049,30.370483,35,NaN,8.82,18.203999,204.6,11 / 33,10018,2020-01-16 19:00:11:653
3.124039,-1.113937,2.861786,-0.823703,-8.276012,-5.196106,-1.217812,3.96028,8.249143,0.906616,1.838089,0.261536,0,16.7053,39.3585,30.1819,189.5347,76.8927,143.6073,0,69.18038,60.02057,30.370394,40,NaN,6.084,15.170001,191.7,16 / 33,15018,2020-01-16 19:00:16:653
0.131287,-16.339859,-0.176453,-1.219449,-9.682698,-0.963686,2.081454,-9.982272,-1.587391,-3.091492,0.542542,0.967636,0,7.9056,47.0078,3.3829,330.6994,75.3413,2.4126,0,52.37448,60.02052,30.370388,45,NaN,5.868,15.170001,194.4,19 / 33,20018,2020-01-16 19:00:21:653
-5.734512,-12.639618,-3.414612,-0.009486,-9.484369,2.493398,-2.396934,-3.555635,-8.400879,1.289047,-0.454895,-0.351517,0,9.1064,49.9084,5.9326,329.8779,77.0131,4.8179,0,66.07782,60.020473,30.370396,49,NaN,5.508,15.170001,195,20 / 33,25018,2020-01-16 19:00:26:653
-1.641617,-8.121765,-1.403488,-0.55917,-9.76792,0.667431,-2.031843,0.58896,-3.692455,1.877258,0.681915,-0.409042,0,6.3049,37.2559,33.2352,202.884,78.6094,152.091,0,65.97281,60.02038,30.370304,51,NaN,8.172,15.170001,199.8,21 / 33,30018,2020-01-16 19:00:31:653
1.820389,3.594269,10.186844,-1.42847,-8.68788,-4.318635,3.785792,-6.907509,-1.096107,-0.121002,-2.549042,0.25444,0,1.7563,34.7046,34.3353,207.5126,57.993,167.8447,0,62.13043,60.020306,30.370274,53,NaN,7.704,15.170001,177.3,21 / 33,35017,2020-01-16 19:00:36:652
3.156357,-1.969864,3.649475,-1.961593,-8.521022,-4.440127,0.424138,4.064515,8.094353,-1.834839,2.656204,1.531876,0,12.5061,36.2091,22.0306,192.6289,75.2118,141.7137,0,58.14984,60.020264,30.370253,51,NaN,5.22,15.170001,196.2,23 / 33,40018,2020-01-16 19:00:41:653
0.452103,-5.53482,-5.013946,-0.021551,-8.655243,-4.610498,-0.097254,2.803252,-3.633442,-0.058868,0.580185,-0.169708,0,16.2064,10.7071,19.5831,129.4994,58.0875,176.1183,0,64.75392,60.020245,30.370216,51,NaN,0.756,15.170001,88.4,23 / 33,45018,2020-01-16 19:00:46:653
-1.204681,-13.563782,10.994888,-0.595656,-9.692795,1.365769,-6.93032,-3.096274,-3.206422,-0.293045,-0.514557,0.109558,0,-3.7308,47.7112,0.3433,16.8268,73.918,-1.0831,0,66.28012,60.020214,30.37013,46,NaN,4.896,15.170001,263.9,23 / 33,50017,2020-01-16 19:00:51:652
-1.529098,-10.839188,-2.037949,0.0051,-9.47163,2.541374,-1.887298,1.424347,-1.973792,1.636856,-1.298584,-0.478104,0,-3.5431,43.0573,18.782,247.685,79.7763,146.1595,0,63.25675,60.020187,30.369953,45,NaN,7.38,15.170001,226.7,22 / 33,55018,2020-01-16 19:00:56:653
0.322815,-6.637359,2.440399,-1.091544,-9.108487,-3.466176,-2.785963,-4.407458,6.548532,1.309296,-1.429443,-0.994583,0,-5.043,38.9587,27.1317,235.7717,62.6986,170.1239,0,61.94126,60.02011,30.369797,42,NaN,7.92,15.170001,225.3,23 / 33,60018,2020-01-16 19:01:01:653
-1.721832,-6.909103,-1.294556,-0.981328,-9.06929,-3.599357,2.406198,-8.572592,-6.652469,-1.19194,0.682632,0.03215,0,-3.4439,30.9067,36.5326,217.1524,55.2991,170.5182,0,61.05115,60.020138,30.369745,41,NaN,0,15.170001,,23 / 33,65018,2020-01-16 19:01:06:653
3.371842,-1.184555,4.941147,-1.571547,-8.301507,-4.978513,-2.1143,-0.831978,1.846383,-2.042572,1.3564,1.458725,0,4.3564,45.3583,18.6813,222.0826,73.0801,154.7323,0,59.71813,60.020126,30.36971,42,NaN,0,15.170001,,23 / 33,70018,2020-01-16 19:01:11:653
-3.050613,-14.062973,8.667725,-1.392782,-9.702701,-0.296913,-3.549598,-4.377258,-6.191669,-2.033691,0.18959,0.865372,0,-5.2444,49.2081,-0.5173,24.9005,76.4684,4.9671,0,62.14257,60.02006,30.369574,40,NaN,5.436,13.653,218.4,23 / 33,75017,2020-01-16 19:01:16:652
-4.770843,-11.417374,-3.370331,-0.349836,-9.745024,1.040433,-2.662704,2.078432,-2.359383,1.823822,-1.015579,-0.522675,0,-2.9938,43.158,23.8327,226.1736,83.7018,149.239,0,59.4084,60.019962,30.36942,43,NaN,8.748,15.170001,215,24 / 33,80018,2020-01-16 19:01:21:653
-0.446915,-16.145935,3.589615,-1.342174,-8.785529,-4.14529,-0.722818,-1.906847,13.08161,0.751984,-1.370315,-0.003525,0,-4.9942,39.2578,29.0314,243.2404,63.0483,165.1889,0,63.00441,60.019855,30.36928,42,NaN,6.264,16.687,225.5,24 / 33,85018,2020-01-16 19:01:26:653
-1.177154,-8.073883,-3.444549,-1.254775,-9.012532,-3.656525,4.28638,7.689692,8.730757,1.601532,1.127014,0.659073,0,-0.5905,31.8604,35.4813,216.825,55.3036,169.3917,0,57.9318,60.01981,30.369158,40,NaN,3.564,15.170001,227.2,24 / 33,90018,2020-01-16 19:01:31:653
-2.411362,-2.339767,2.982697,-1.449211,-8.101639,-5.332319,-2.833508,0.218572,3.015938,-1.886154,3.053375,0.847611,0,-1.0437,44.1574,14.9323,318.7623,85.2932,54.0785,0,59.36267,60.01975,30.36906,38,NaN,4.68,13.653,227.6,26 / 33,95017,2020-01-16 19:01:36:652
5.363816,-16.916855,0.204224,-0.093624,-9.587461,2.059663,-2.921885,-4.86771,-3.806477,-0.926346,-0.203842,0.535675,0,-4.744,48.2071,-0.267,21.8383,74.4862,-4.8383,0,62.11202,60.019688,30.368927,37,NaN,4.212,13.653,241.1,25 / 33,100018,2020-01-16 19:01:41:653
-3.35228,-13.265701,-5.685516,0.042248,-9.518866,2.357925,-3.802827,-2.575355,-6.832744,1.101563,-0.966583,-0.419159,0,-1.4923,45.0439,16.0507,291.0288,86.3127,82.2261,0,64.90639,60.01966,30.368769,38,NaN,4.752,15.170001,243.1,25 / 33,105018,2020-01-16 19:01:46:653
-0.068634,-7.33287,0.577713,-0.614835,-9.772881,0.532148,-3.354833,-2.271985,-3.502934,2.613175,-1.462112,-1.127914,0,-5.9937,34.407,34.1827,222.2754,58.9264,173.4837,0,67.00716,60.019627,30.368608,40,NaN,7.596,15.170001,230.7,25 / 33,110018,2020-01-16 19:01:51:653
-2.612472,-15.001495,1.091263,-0.889338,-8.550465,-4.719005,0.827284,-5.77282,-0.610987,-1.093063,-0.667236,-0.514679,0,-9.5428,37.8082,31.6818,245.4499,60.6807,169.3273,0,62.36959,60.019585,30.368477,39,NaN,4.68,13.653,240.8,23 / 33,115018,2020-01-16 19:01:56:653
1.139237,-10.500397,-7.373428,-0.953885,-8.793775,-4.234386,0.517545,4.348212,-0.335516,2.906296,0.265396,0.702026,0,-4.1443,30.7571,37.532,232.2854,59.6179,158.6253,0,67.18062,60.019573,30.368387,39,NaN,2.7,15.170001,240.8,22 / 33,120018,2020-01-16 19:02:01:653
-0.694717,-2.354126,3.894882,-1.21976,-8.066649,-5.441667,-3.7806,0.692161,3.490413,-1.694397,3.02034,0.681793,0,3.1052,47.1573,16.9296,288.6548,84.3628,75.9968,0,59.15348,60.019512,30.368305,41,NaN,4.68,15.170001,231.8,22 / 33,125018,2020-01-16 19:02:06:653
-6.222931,-4.743545,-0.2854,0.573086,-9.300409,3.056853,-6.970912,-0.184672,-5.840533,-0.233398,-0.784943,0.130875,0,0.2563,50.058,0.7324,0.4451,71.2626,-7.589,0,70.19789,60.019436,30.36815,42,NaN,6.588,15.170001,230.8,24 / 34,130018,2020-01-16 19:02:11:653
-5.507065,-10.94812,-6.328369,-1.136465,-9.169739,-3.285534,0.015972,-1.394937,3.679652,1.951996,-1.976623,-1.644577,0,-16.6443,28.6087,37.3825,229.2155,68.8054,169.15,0,64.1716,60.019318,30.368015,40,NaN,4.464,15.170001,199.1,24 / 34,135018,2020-01-16 19:02:16:653
-2.408966,-9.118942,0.298782,-0.43441,-9.788066,0.418865,1.797854,0.610703,0.206895,1.091446,-1.376892,-0.122665,0,-11.9431,18.306,31.9839,225.9024,74.3721,161.694,0,63.45714,60.01924,30.368015,37,NaN,3.132,15.170001,178.6,24 / 34,140017,2020-01-16 19:02:21:652
0.671173,-10.051483,-0.311737,-0.233057,-9.756289,-0.964835,-0.845472,0.160025,0.109577,0.536789,0.298416,0.172943,0,-12.9944,13.3575,28.183,214.2079,80.0336,173.4604,0,64.56835,60.0192,30.36803,37,NaN,0,15.170001,,24 / 34,145018,2020-01-16 19:02:26:653
1.169174,-11.656799,-2.160049,-1.10226,-8.544665,-4.684454,-0.099016,1.182255,1.778657,-1.006592,0.722565,0.649124,0,-3.4439,35.5072,-3.5675,354.2902,66.4323,165.0231,0,61.84209,60.0192,30.36803,37,NaN,0,15.170001,,23 / 34,150018,2020-01-16 19:02:31:653
0.272537,-5.860443,5.969452,-0.494906,-9.574277,-2.063658,1.432433,-0.516138,-2.275499,1.135651,-0.373398,-0.214462,0,-9.2438,46.3577,-5.8167,341.5222,70.2554,168.4057,0,57.42871,60.01923,30.367975,38,NaN,2.628,13.653,324.8,23 / 34,155018,2020-01-16 19:02:36:653
-2.10849,-10.767349,0.338287,-0.614256,-9.487919,-2.402596,0.325659,0.156354,0.062621,-2.285797,0.199524,-0.22084,0,23.4573,41.2064,-9.7717,216.6794,82.4947,37.4085,0,58.22652,60.019245,30.367949,39,NaN,1.296,13.653,328.3,25 / 34,160017,2020-01-16 19:02:41:652
1.731812,-11.507156,-1.080276,-0.656669,-9.783411,-0.15509,-0.381816,-0.388081,-1.609041,0.892426,-0.71962,0.256744,0,3.4943,32.5592,29.6799,188.0871,77.9173,168.2271,0,60.09215,60.019257,30.36795,39,NaN,0,13.653,,26 / 34,165018,2020-01-16 19:02:46:653
-4.022659,-11.38266,0.276047,-0.555452,-9.77854,0.491956,1.914505,0.230907,1.57403,-1.946686,-0.924332,0.23349,0,5.9067,33.8577,11.5829,335.0155,78.8504,9.9903,0,42.6798,60.019245,30.367964,40,NaN,1.872,13.653,129.6,25 / 34,170017,2020-01-16 19:02:51:652
-0.788086,-10.032333,0.431671,-0.857132,-9.740361,0.749053,-0.080674,0.055686,-0.206294,-0.026367,-0.974915,0.015106,0,-18.9926,28.9093,9.8816,6.5865,83.4752,54.6885,0,49.99416,60.019215,30.36801,38,NaN,0,13.653,,25 / 34,175017,2020-01-16 19:02:56:652
-0.305664,-10.960083,1.990295,-0.781778,-9.768058,0.379808,1.921393,-1.085634,-1.495864,-0.803482,-0.92717,0.238647,0,3.0563,24.7574,-26.4679,165.2936,77.9105,18.0606,0,57.70861,60.01921,30.367998,38,NaN,0,13.653,,24 / 34,180017,2020-01-16 19:03:01:652
0.461685,-12.888611,-2.448562,-1.013233,-9.224709,-3.169937,0.56302,0.14975,-1.913988,-0.096497,0.59137,0.494659,0,-20.0439,32.6584,3.4332,304.3992,67.231,168.231,0,59.11003,60.019215,30.367985,38,NaN,0,13.653,,23 / 34,185017,2020-01-16 19:03:06:652
-0.935333,-9.847977,0.355057,-0.720482,-9.769551,0.455139,-0.345117,0.148686,0.056057,0.16626,-0.282684,-0.023239,0,4.6555,31.1569,11.1328,248.5083,85.7481,97.3206,0,61.84772,60.019215,30.367975,37,NaN,0,13.653,,24 / 33,190018,2020-01-16 19:03:11:653
-1.494385,-9.593002,-0.00528,-0.713271,-9.737032,0.922961,-0.507217,-0.08392,-0.91585,0.07962,-0.777679,-0.049332,0,0.8057,33.9584,10.7819,316.9085,83.8652,50.7557,0,61.30713,60.019215,30.367975,37,NaN,0,13.653,,24 / 33,195018,2020-01-16 19:03:16:653
-2.013916,-10.204712,0.455612,-0.185508,-9.784755,0.628136,-0.82869,-0.063375,-0.672936,0.091873,-0.210785,-0.184265,0,-16.5436,34.0073,5.5298,19.8369,85.8591,48.1212,0,60.32083,60.019215,30.367987,39,NaN,0.684,13.653,74.4,24 / 33,200017,2020-01-16 19:03:21:652
-0.976028,-10.095779,0.157532,-0.824125,-9.748284,0.679823,-0.655727,0.192819,-0.12264,-0.086029,0.179108,0.124481,0,-6.2454,35.0571,11.3831,349.9008,83.997,41.5922,0,54.76944,60.019215,30.368008,38,NaN,1.62,13.653,50.2,24 / 33,205018,2020-01-16 19:03:26:653
-1.189117,-9.093811,-3.583404,-1.098612,-9.345192,-2.762396,-0.420977,0.521917,-0.162881,0.541061,-0.158218,-0.192261,0,-8.9447,25.6577,21.8308,247.8778,66.4799,161.9576,0,61.125,60.019215,30.368008,38,NaN,1.62,13.653,50.2,24 / 33,210017,2020-01-16 19:03:31:652
-0.727035,-9.776154,1.805939,-0.579415,-9.712086,1.228839,-0.045399,-0.591912,-0.201496,0.16893,0.003525,-0.023056,0,-16.3452,34.108,3.5812,40.3035,82.0367,25.2445,0,59.83637,60.01921,30.368036,37,NaN,0,13.653,,23 / 33,215018,2020-01-16 19:03:36:653
-1.784073,-9.259003,-3.658829,-1.186573,-9.08884,-3.486462,0.06593,0.178144,-0.083051,-0.221313,0.191895,0.198517,0,-13.3438,30.1575,17.5323,267.961,67.9419,161.2047,0,51.67862,60.019207,30.368044,38,NaN,0,13.653,,23 / 33,220018,2020-01-16 19:03:41:653
-1.681122,-8.552719,-0.593048,-0.322444,-9.78788,-0.51365,-0.56387,2.065739,-1.638259,0.471634,-0.756012,-0.039398,0,-19.5923,34.9579,-0.5692,309.7027,86.4544,147.8814,0,45.82488,60.019188,30.368053,39,NaN,3.708,15.170001,144.1,23 / 33,225018,2020-01-16 19:03:46:653
0.063049,-11.272537,0.668686,-1.204265,-9.363386,-2.654642,2.904512,-7.536682,-0.361196,-2.929397,0.144135,0.66687,0,28.0899,64.7553,-29.0497,48.2153,72.7075,155.5988,0,55.48644,60.01914,30.368162,42,NaN,5.04,13.653,151.4,24 / 34,230018,2020-01-16 19:03:51:653
-0.305664,-17.39331,-7.101684,-0.091429,-9.15294,-3.519335,0.175775,-4.6914,-4.752493,-0.9599,0.306412,-0.079163,0,25.3052,50.7095,38.0829,126.4842,68.9616,178.5119,0,64.9529,60.019077,30.368238,43,NaN,0,13.653,,24 / 34,235018,2020-01-16 19:03:56:653
-0.138062,-11.687927,-4.296875,-0.742268,-9.541302,-2.14079,-4.065025,-1.982176,1.037535,-2.085174,0.759323,0.031631,0,16.4063,43.6081,26.4313,160.689,76.6411,160.8772,0,66.28299,60.019073,30.368233,43,NaN,0,13.653,,25 / 34,240018,2020-01-16 19:04:01:653
-0.779709,-7.19281,-0.456589,-0.468675,-9.793736,-0.182893,-2.309255,-4.431124,7.077338,3.867706,-3.847412,-1.810928,0,2.0065,41.2094,22.3312,233.2131,66.5826,162.5264,0,73.70195,60.019028,30.368217,44,NaN,6.84,13.653,192.2,25 / 34,245018,2020-01-16 19:04:06:653
5.040589,-17.934402,-10.842636,-0.26901,-8.47187,-4.932081,0.780542,-6.60689,-11.53344,0.69606,0.41275,0.272018,0,-2.7939,34.4589,32.6813,221.5204,56.1643,165.05,0,61.87854,60.01898,30.36808,44,NaN,4.176,13.653,227.7,25 / 34,250018,2020-01-16 19:04:11:653
-5.501068,-6.632568,-0.158508,-0.730253,-9.598395,-1.872946,3.077705,-3.089187,2.825734,-3.218262,1.486008,0.488983,0,6.3568,47.6593,13.031,352.2985,79.6171,-6.0905,0,65.91304,60.018913,30.367994,45,NaN,5.688,15.170001,202.7,25 / 33,255017,2020-01-16 19:04:16:652
-4.888153,-11.189926,0.352661,0.469658,-9.474627,2.486209,-4.788591,-2.477542,-4.376197,2.021591,-0.378204,-0.529587,0,8.6075,47.3587,8.0811,308.4063,87.7871,9.9922,0,67.66024,60.01884,30.36789,47,NaN,6.264,15.170001,205.1,25 / 33,260017,2020-01-16 19:04:21:652
-5.316726,-11.392242,-9.093658,-1.073943,-9.429691,-2.469403,3.524002,1.730911,10.539106,0.747543,-2.346268,0.038376,0,2.0065,34.9091,34.9319,174.1333,57.4213,178.5234,0,64.13617,60.01875,30.36779,43,NaN,7.416,16.687,225.3,25 / 33,265018,2020-01-16 19:04:26:653
-4.793594,-9.025574,-4.438141,-0.241424,-8.744174,-4.433002,-0.596553,4.501821,-1.126063,0.337585,1.769379,0.583252,0,2.6062,27.1088,40.0314,177.6148,55.8052,176.7817,0,63.79552,60.018673,30.367722,42,NaN,4.536,15.170001,221.5,25 / 33,270018,2020-01-16 19:04:31:653
-8.000625,-7.535187,-0.390747,-0.757064,-9.2244,-3.241557,-4.756688,1.133021,3.978494,-2.436539,2.363251,1.625259,0,7.5562,40.1581,22.0322,262.5309,85.8038,84.6461,0,60.09777,60.018585,30.367683,40,NaN,5.94,15.170001,193.8,26 / 33,275018,2020-01-16 19:04:36:653
-5.772812,-10.895447,-4.435745,0.407566,-9.391178,2.794648,-5.789812,-2.659687,-4.478421,1.780487,-0.430038,-0.488403,0,6.2088,49.9069,1.7853,305.44,84.8817,18.0662,0,66.24472,60.018467,30.367647,43,NaN,6.66,15.170001,180.4,27 / 33,280017,2020-01-16 19:04:41:652
1.378662,-5.524048,0.422089,-0.939292,-9.674957,-1.297426,5.335026,3.291141,1.703949,3.625534,-3.627792,-1.591141,0,-10.7437,40.9088,28.0319,261.4884,62.8961,171.9382,0,60.58129,60.01839,30.367573,41,NaN,6.912,15.170001,250.4,27 / 33,285018,2020-01-16 19:04:46:653
0.276138,-17.96193,-19.667664,-0.971446,-8.88037,-4.045455,4.19059,7.244039,9.372597,0.497742,1.751968,0.544189,0,-8.9386,30.8624,57.283,218.8479,54.8521,167.6123,0,52.22873,60.018387,30.367384,43,NaN,4.14,15.170001,257.8,27 / 33,290018,2020-01-16 19:04:51:653
3.911728,-22.655762,-6.703048,0.303893,-9.594107,2.007776,-3.262961,-3.747142,-1.821326,-1.074417,-0.105499,0.488449,0,-10.4446,44.6579,4.4327,41.8116,78.0494,-8.6069,0,59.35158,60.01837,30.367228,44,NaN,3.78,15.170001,256.2,27 / 33,295017,2020-01-16 19:04:56:652
-9.136673,-12.773697,16.319595,-1.091618,-8.589044,-4.605115,3.374901,0.851581,3.61392,-0.016968,-2.348938,0.00676,0,-25.8926,28.9093,35.8337,246.2152,62.2191,170.2533,0,61.93105,60.01835,30.367056,44,NaN,4.932,15.170001,236.7,26 / 33,300017,2020-01-16 19:05:01:652
-6.267227,-8.172043,-2.43779,-0.999528,-9.26008,-3.069566,-2.939096,-0.108456,2.366215,-3.255539,-0.39827,-0.214981,0,15.9531,40.9744,15.5899,246.9859,86.2872,74.2683,0,62.22733,60.018295,30.367022,44,NaN,5.832,13.653,181.3,26 / 34,305018,2020-01-16 19:05:06:653
-2.219818,-8.266617,1.758057,0.362681,-9.498905,2.410322,-2.013916,0.940631,-2.556417,1.960877,-0.347305,-0.450592,0,12.207,48.7091,0.1312,256.735,87.943,21.4795,0,63.3396,60.018192,30.367022,42,NaN,3.204,13.653,194.6,26 / 34,310018,2020-01-16 19:05:11:653
-4.062164,-9.836014,14.857925,-0.991876,-8.752811,-4.309857,-0.463471,-3.289129,9.44142,-1.041916,0.311905,-0.048096,0,4.9057,29.7577,29.0833,187.3225,63.194,167.0396,0,63.23859,60.01815,30.367027,42,NaN,0,13.653,,26 / 34,315017,2020-01-16 19:05:16:652
-3.999908,-6.800155,-1.018021,-1.088032,-8.331815,-5.056426,-1.942072,4.673578,7.625978,-2.194717,1.159149,1.24585,0,17.0059,35.8093,19.2795,141.7326,73.6401,160.8145,0,47.43022,60.01811,30.367044,41,NaN,3.312,13.653,181.6,26 / 35,320018,2020-01-16 19:05:21:653
-5.759643,-12.458862,-1.246674,0.372695,-9.435366,2.646763,-1.776756,1.136231,-3.734312,1.808548,-0.539947,-0.44809,0,12.0575,45.4086,-4.9683,231.2747,86.9423,24.435,0,64.46512,60.018017,30.367067,38,NaN,8.604,15.170001,176.1,26 / 35,325018,2020-01-16 19:05:26:653
7.165451,-3.485382,0.667496,-1.106309,-8.778958,-4.228043,1.575862,-1.809856,10.940495,-0.951202,-0.19426,-0.292389,0,11.9064,35.2081,27.2812,135.5822,58.7271,171.1427,0,65.04398,60.017906,30.367111,37,NaN,5.184,13.653,174.5,26 / 35,330018,2020-01-16 19:05:31:653
1.211075,-1.687347,4.916001,-1.091656,-8.042948,-5.503604,0.390354,5.891888,10.016457,-2.274078,2.63916,1.531159,0,18.8065,34.9091,19.0323,138.0519,69.2947,156.5833,0,57.88327,60.017822,30.367147,38,NaN,6.984,15.170001,166.5,26 / 35,335017,2020-01-16 19:05:36:652
-5.453186,-12.782074,-3.290115,0.121883,-9.63552,1.819969,-5.047262,-3.314511,-3.93204,-1.156265,0.034592,0.535675,0,9.2072,41.0584,-10.3683,292.4436,84.8324,0.2775,0,61.0697,60.017746,30.367172,37,NaN,6.84,15.170001,171.6,26 / 35,340017,2020-01-16 19:05:41:652
-2.173141,-15.674271,0.776428,-1.211276,-9.351504,-2.693059,5.079726,3.066871,5.552519,1.63829,-1.995087,-1.219345,0,13.4064,31.308,25.4822,145.8702,64.6009,168.1751,0,63.59694,60.01766,30.367197,36,NaN,8.028,15.170001,176.2,24 / 33,345017,2020-01-16 19:05:46:652
2.713425,-3.078369,1.742493,-0.913844,-8.358539,-5.046789,0.729835,5.451863,10.204595,-1.683746,2.482041,0.722443,0,16.7068,37.0087,22.0322,120.2485,62.1534,162.9636,0,56.64621,60.017586,30.367254,38,NaN,3.924,13.653,162.1,24 / 35,350018,2020-01-16 19:05:51:653
-4.855835,-11.792068,-1.207169,0.531876,-9.419168,2.677081,-5.455904,-2.721301,-5.317879,1.906906,-0.218933,-0.588013,0,8.4564,43.6081,-2.269,267.1799,86.2487,9.2417,0,63.40592,60.017506,30.367336,39,NaN,6.552,13.653,169,24 / 35,355018,2020-01-16 19:05:56:653
-0.936523,-14.198242,6.721237,-1.008547,-9.314978,-2.895584,4.008881,2.945119,7.877676,0.291428,-1.711029,0.212372,0,6.3568,31.308,29.5319,182.3548,67.1319,164.7767,0,68.42227,60.017406,30.36737,41,NaN,8.28,13.653,170.5,25 / 35,360018,2020-01-16 19:06:01:653
2.617661,-1.896835,5.254792,-1.461141,-8.009549,-5.466496,-3.788062,-0.365886,2.559752,-1.918823,3.410233,1.005096,0,15.9546,36.5601,23.8297,232.905,86.3945,70.8033,0,67.82157,60.017376,30.367388,42,NaN,5.904,13.653,163.1,25 / 35,365018,2020-01-16 19:06:06:653
-4.963577,-13.232178,-0.964157,0.191579,-9.425146,2.701906,-1.57806,-0.836126,-5.914636,1.733261,-0.826858,-0.312286,0,14.6133,46.0053,-0.4547,171.8807,87.7368,97.133,0,65.82515,60.017326,30.367386,41,NaN,5.616,13.653,185,24 / 35,370018,2020-01-16 19:06:11:653
-1.518326,-15.153534,3.218521,-0.843271,-8.83589,-4.169692,-2.29731,-3.262323,11.615917,0.805603,-1.425186,-0.262039,0,11.4563,33.5571,17.4316,106.7357,64.2911,168.5668,0,64.59096,60.017235,30.367367,39,NaN,6.732,15.170001,190.4,24 / 35,375018,2020-01-16 19:06:16:653
2.442886,-2.138656,0.770447,-1.174316,-8.183832,-5.274113,4.064258,7.026243,7.12967,1.78653,1.237808,0.645752,0,18.6569,31.459,23.6816,189.2952,83.5692,113.2782,0,56.53835,60.017197,30.367329,39,NaN,0,15.170001,,24 / 35,380018,2020-01-16 19:06:21:653
4.475571,-18.44197,2.330277,-0.446669,-9.776695,0.622174,-5.571857,-2.959206,-4.505866,-0.679199,-0.167099,0.244141,0,9.5062,44.6579,-9.169,297.8076,73.158,-8.3693,0,56.84568,60.017105,30.367336,39,NaN,5.76,15.170001,183.2,24 / 35,385017,2020-01-16 19:06:26:652
-3.627609,-8.041549,-1.209564,-0.053632,-9.754309,1.01043,-0.754514,1.831283,-2.122579,1.557678,0.680313,-0.35524,0,14.7614,40.5182,11.2564,154.6207,83.8711,145.7111,0,60.88825,60.01703,30.367296,34,NaN,9.288,15.170001,219.2,24 / 34,390017,2020-01-16 19:06:31:652
-1.415375,-15.017059,-8.984726,-1.090247,-9.124897,-3.423156,2.052919,-12.179718,-11.428493,2.619919,0.384354,0.367004,0,10.9558,34.9075,23.1339,161.8421,68.5098,162.3338,0,63.4421,60.01695,30.367231,37,NaN,5.796,15.170001,180.4,23 / 35,395018,2020-01-16 19:06:36:653
-3.765274,-5.065567,1.965149,-1.460329,-9.05372,-3.473902,5.780048,-8.728155,-0.525477,-3.405395,0.268417,0.000549,0,9.5566,41.658,16.9327,242.729,82.4757,101.4587,0,54.10434,60.016922,30.367374,40,NaN,0,15.170001,,23 / 35,400018,2020-01-16 19:06:41:653
-4.865417,-10.458496,-1.958939,0.210266,-9.63946,1.790806,-2.527058,-0.637477,-5.845002,1.74588,-1.245499,-0.351517,0,8.0566,48.1079,-4.3152,304.7595,79.405,-6.6967,0,62.63298,60.016834,30.367432,47,NaN,7.092,15.170001,169.9,25 / 35,405018,2020-01-16 19:06:46:653
-3.19426,-7.233505,14.781311,-1.123794,-8.801137,-4.177018,3.649357,4.638999,5.530545,-0.38945,-1.849686,0.018127,0,11.0062,36.058,29.7821,167.4315,63.827,164.9416,0,59.06854,60.01673,30.367462,48,NaN,0,15.170001,,24 / 35,410018,2020-01-16 19:06:51:653
-1.869064,-3.26033,4.294709,-1.268491,-9.187238,-3.186844,1.18412,-2.31699,2.985746,-2.333389,0.633804,0.509033,0,18.605,40.4602,18.7805,130.669,69.5271,158.2955,0,48.07637,60.016712,30.367516,51,NaN,5.652,13.653,182.5,24 / 35,415017,2020-01-16 19:06:56:652
-3.0961,-10.755386,-6.43251,0.207738,-9.401885,2.78061,-4.954474,-2.216208,-4.774816,0.138382,-0.655518,-0.05217,0,6.9061,47.4579,-6.3675,317.5757,73.481,-4.2726,0,61.43257,60.01661,30.367567,53,NaN,4.788,13.653,187.5,23 / 34,420018,2020-01-16 19:07:01:653
-0.443329,-20.25438,-14.285492,-0.747448,-8.580505,-4.688992,4.52041,-7.653907,-9.092717,-0.08461,0.169708,-0.347794,0,5.5069,34.7076,29.8813,173.0049,61.0412,170.943,0,62.02745,60.016487,30.367588,54,NaN,8.172,15.170001,191.7,22 / 35,425017,2020-01-16 19:07:06:652
5.752869,-19.33142,-5.551437,-1.058107,-9.696165,-1.017433,-2.939283,-5.047597,-5.7951,-2.663788,0.181595,0.667587,0,12.3062,47.8577,-0.0183,312.605,77.125,-1.6476,0,58.24434,60.016403,30.36758,58,NaN,6.372,13.653,172.6,22 / 34,430018,2020-01-16 19:07:11:653
0.575409,-7.890716,-0.175262,-0.671341,-9.654366,-1.585217,0.206834,2.354057,1.38251,2.556,-3.07048,-1.212601,0,14.6072,45.3079,10.9848,129.4321,79.8896,157.0473,0,62.78998,60.01632,30.367594,57,NaN,6.984,13.653,162.3,21 / 34,435018,2020-01-16 19:07:16:653
-0.3703,-5.512085,-3.498413,-0.86995,-8.412433,-4.964328,1.483978,4.331685,9.521925,0.875366,2.0522,0.400726,0,20.8572,34.7076,25.4822,135.8679,60.814,157.4665,0,61.89354,60.016293,30.367657,60,NaN,3.06,13.653,162.6,22 / 34,440018,2020-01-16 19:07:21:653
-2.078567,-15.425278,-10.021423,-0.364586,-9.79034,0.432086,-5.590651,-3.004241,-4.864064,-2.978042,0.725418,0.877625,0,7.5058,48.0576,-7.9178,310.9548,72.6086,-7.8378,0,64.80606,60.01627,30.367672,57,NaN,7.236,13.653,170,22 / 34,445018,2020-01-16 19:07:26:653
0.764557,-7.733902,0.016266,-0.658048,-9.712766,-1.183024,-3.338303,1.841498,-5.226903,3.822785,-3.737686,-1.906448,0,11.7569,41.0584,20.1828,177.4873,82.0655,150.9154,0,64.91007,60.01617,30.367685,56,NaN,5.724,13.653,180.5,24 / 34,450018,2020-01-16 19:07:31:653
3.908142,-14.684265,-12.050507,-0.878247,-8.974487,-3.854562,4.316552,-12.483219,-12.957584,-0.369217,0.385056,-0.180008,0,15.5563,28.8574,30.3818,154.0118,66.2261,167.1645,0,63.084,60.0161,30.367733,52,NaN,0,13.653,,24 / 34,455018,2020-01-16 19:07:36:653
-4.501495,-10.681168,-3.358353,-1.128071,-9.704147,-0.852851,3.478679,-9.236197,-0.22224,-3.27153,0.431046,0.191238,0,17.8558,39.4577,10.0327,168.8111,81.7087,127.0902,0,62.10405,60.016045,30.36776,54,NaN,8.352,15.170001,180,26 / 34,460018,2020-01-16 19:07:41:653
-4.915695,-10.579407,-3.718689,0.051209,-9.615497,1.926135,-2.956977,-0.309291,-5.793014,1.557144,-0.907989,-0.48378,0,12.3566,44.0079,-0.3662,306.7506,78.6688,-1.5229,0,66.75904,60.016,30.3678,54,NaN,0,15.170001,,26 / 34,465017,2020-01-16 19:07:46:652
12.323761,-5.513275,-15.862076,-0.888879,-9.08344,-3.587674,-1.472547,-6.625344,7.854164,1.058777,-0.928757,-0.585342,0,9.906,35.5576,27.9816,149.6706,63.7661,171.9386,0,62.24588,60.01593,30.367804,51,NaN,2.16,15.170001,187,25 / 34,470017,2020-01-16 19:07:51:652
3.398178,-1.944717,4.97107,-1.008055,-8.002836,-5.577529,-2.149447,3.708476,7.502409,-2.196152,3.299805,1.246018,0,18.5562,35.1578,23.1323,143.1914,64.7723,156.4852,0,60.24938,60.01586,30.367733,47,NaN,5.22,15.170001,208.2,24 / 34,475018,2020-01-16 19:07:56:653
-6.997452,-13.837921,-2.928589,0.451,-9.341964,2.948679,-6.526913,-2.932336,-4.946284,-0.88533,-0.317841,0.491638,0,6.9565,46.2067,-10.318,303.5146,72.2913,-8.696,0,63.67992,60.015785,30.367722,44,NaN,4.68,15.170001,164.6,24 / 34,480018,2020-01-16 19:08:01:653
-0.006378,-7.49208,0.393356,-0.490604,-9.718126,-1.219712,2.293404,3.856159,0.13683,2.608902,-1.097778,-1.03418,0,10.9558,42.4576,18.8339,168.919,82.2957,158.0886,0,62.6688,60.015667,30.367783,46,NaN,9.36,15.170001,178.3,21 / 34,485018,2020-01-16 19:08:06:653
-0.648025,-10.893051,-4.769729,-0.697222,-9.037079,-3.743726,2.235831,8.068839,6.486458,2.407044,1.388718,0.592133,0,7.6553,32.8583,27.6321,168.857,67.1501,169.4502,0,63.13181,60.015575,30.367853,46,NaN,3.924,13.653,159.8,22 / 35,490018,2020-01-16 19:08:11:653
3.080948,-13.71582,0.72496,-1.073412,-9.39193,-2.609566,2.468551,-5.16405,7.072134,-2.586914,0.392334,1.264847,0,12.9562,44.8578,-0.8682,247.9272,85.1914,33.3448,0,57.9756,60.015484,30.367924,51,NaN,7.02,13.653,165,22 / 35,495018,2020-01-16 19:08:16:653
1.200302,-7.832062,0.396957,-0.229349,-9.769213,0.824784,1.124218,2.135001,-1.292705,1.835709,0.354691,-0.40744,0,12.6526,43.1534,12.9684,153.7022,80.5867,151.2071,0,63.04489,60.015377,30.367935,51,NaN,7.92,13.653,176.2,22 / 35,500018,2020-01-16 19:08:21:653
1.029114,-6.945007,-2.878311,-0.84631,-8.891367,-4.049411,2.86912,-13.598077,-11.799082,2.926544,0.454483,0.64006,0,9.108,33.7341,29.5044,156.3958,59.607,170.9761,0,60.83977,60.015293,30.36794,49,NaN,2.52,13.653,169.1,21 / 35,505017,2020-01-16 19:08:26:652
6.098831,-18.081635,2.477509,-0.266429,-9.663201,1.649833,-3.725994,-4.344169,-5.113604,-1.545792,0.41951,0.962845,0,7.4341,46.8536,-6.4056,280.2186,80.188,9.1734,0,63.52141,60.015278,30.367928,48,NaN,2.736,13.653,151.4,22 / 35,510017,2020-01-16 19:08:31:652
0.565826,-6.772629,2.606796,-0.773581,-9.74216,-0.813804,-2.723045,-3.290724,-2.462651,2.625076,-1.490341,-1.410736,0,12.2055,38.9084,23.1323,165.0192,64.636,156.3979,0,61.77414,60.015167,30.367947,50,NaN,10.656,13.653,177,21 / 35,515018,2020-01-16 19:08:36:653
-2.496353,-8.625748,-10.630737,-1.216731,-8.648655,-4.459903,3.764666,7.196697,7.695968,-0.797974,2.151627,0.55751,0,10.6064,29.1077,33.5815,184.1995,58.5872,160.2626,0,59.33133,60.015102,30.367916,50,NaN,0,13.653,,22 / 35,520018,2020-01-16 19:08:41:653
-4.139969,-13.378235,-9.1595,0.07174,-9.618546,1.910186,-2.866873,-2.671059,-4.44738,-0.188461,-0.872299,0.156799,0,10.907,46.7072,-8.168,300.2882,73.2146,-4.5645,0,63.11342,60.015064,30.367905,48,NaN,5.22,13.653,177,21 / 35,525018,2020-01-16 19:08:46:653
-0.000397,-10.065857,-0.780991,-0.139854,-9.767703,-0.861866,0.074981,-0.010168,0.202416,0.063644,0.329849,0.091278,0,11.2061,48.8586,-8.3679,44.6882,84.6352,175.678,0,49.8864,60.01499,30.367916,48,NaN,1.188,13.653,179.9,23 / 35,530018,2020-01-16 19:08:51:653
-1.537476,-7.52919,-2.399475,-0.433607,-8.643464,-4.612256,3.710662,-7.605968,-6.790519,-1.155731,0.578064,-0.010635,0,4.1061,35.6583,30.3329,177.7566,60.8068,173.0625,0,66.24404,60.01494,30.367943,49,NaN,2.916,13.653,167.6,22 / 35,535017,2020-01-16 19:08:56:652
-0.995193,-11.349152,-2.108581,-0.958843,-9.756103,-0.263608,5.99991,-9.251067,0.190221,-2.885727,0.630783,1.294144,0,15.2557,45.8588,7.0831,193.4788,84.1801,105.3721,0,61.36382,60.01487,30.367933,46,NaN,6.588,13.653,174.4,22 / 35,540018,2020-01-16 19:09:01:653
-3.178696,-7.80693,0.513077,-0.084318,-9.77363,0.799643,-2.828965,1.58683,-2.276953,1.932831,-1.710144,-0.318314,0,13.205,45.607,0.8316,284.6383,85.2968,6.0193,0,64.86322,60.014797,30.367947,44,NaN,6.804,15.170001,160.8,21 / 35,545018,2020-01-16 19:09:06:653
-2.063003,-3.85051,-7.385406,-0.747318,-9.010943,-3.796682,0.053317,-3.794484,-5.093393,1.103165,0.145737,0.31871,0,14.9063,35.759,26.4816,140.8206,66.7601,168.8646,0,63.6388,60.014713,30.367983,47,NaN,7.236,15.170001,150.1,21 / 35,550018,2020-01-16 19:09:11:653
4.96518,-14.07135,-0.518829,-0.632172,-9.572492,-2.034242,1.609373,-1.988327,2.776177,-3.195175,1.052261,-0.07988,0,12.355,45.2576,0.9323,305.9852,80.2006,-0.3164,0,53.97298,60.01466,30.367971,46,NaN,8.748,15.170001,172.3,22 / 35,555017,2020-01-16 19:09:16:652
-4.129196,-13.147186,-0.34285,0.569349,-9.389899,2.770563,-3.955178,1.825152,-2.27911,1.592835,-0.146332,-0.487335,0,10.2554,43.9087,0.4318,296.3115,84.118,-2.4837,0,70.12776,60.014565,30.367985,42,NaN,8.748,16.687,167.2,19 / 34,560018,2020-01-16 19:09:21:653
-1.669159,-14.96199,0.689041,-0.15851,-9.752959,-1.012449,3.573424,1.773247,7.947695,2.109482,-3.076507,-1.281677,0,11.8057,30.1575,27.4841,154.2858,63.692,167.911,0,69.1724,60.014484,30.367992,42,NaN,5.328,18.203999,141.8,20 / 35,565018,2020-01-16 19:09:26:653
-3.877807,-6.701996,-4.241821,-0.948391,-8.981276,-3.821993,3.833892,-11.065928,-13.658405,2.891922,1.179932,0.694031,0,13.2568,30.6076,27.8824,159.0071,66.3246,166.0641,0,65.09789,60.014423,30.368065,44,NaN,0,16.687,,19 / 35,570018,2020-01-16 19:09:31:653
-1.839142,-3.625458,3.01741,-1.541192,-9.042511,-3.468154,-1.665974,2.945132,6.162741,-2.164535,2.966904,1.137192,0,19.5557,35.759,7.7286,184.3982,82.9242,108.3412,0,60.30199,60.01435,30.368046,43,NaN,6.768,16.687,178.9,17 / 35,575017,2020-01-16 19:09:36:652
-0.073425,-14.855453,-3.321243,0.416233,-9.499519,2.399222,-3.089402,-1.160339,-7.306574,1.20755,-0.703812,-0.305527,0,16.4063,40.3091,-9.4666,279.529,76.6211,-8.437,0,61.43488,60.014244,30.368023,40,NaN,8.172,16.687,181.7,16 / 35,580018,2020-01-16 19:09:41:653
1.947281,-6.754669,0.041412,-0.347557,-9.800461,0.023648,-2.088179,-5.694958,3.523532,3.40892,-2.316269,-1.801697,0,14.4562,35.9085,9.3323,89.4543,70.7659,164.3183,0,68.31745,60.01414,30.367935,38,NaN,4.788,16.687,184.2,17 / 35,585018,2020-01-16 19:09:46:653
-1.494385,-10.725449,-2.99324,-0.754309,-8.901673,-4.044949,0.620401,-8.437965,-12.212739,0.983856,-0.193024,0.131927,0,8.9569,29.3076,27.9816,165.4538,65.1919,169.4367,0,53.61092,60.01399,30.368114,65,NaN,4.968,39.441998,195.5,16 / 35,590018,2020-01-16 19:09:51:653
1.495972,-15.05896,0.423294,-0.670847,-9.777183,0.356431,3.150544,-4.971624,7.465069,-2.878448,1.549042,1.064926,0,2.3056,44.1589,1.2314,352.1353,73.9877,-7.8625,0,59.76799,60.01396,30.368052,56,NaN,6.876,15.170001,168.7,18 / 35,595018,2020-01-16 19:09:56:653
-4.033432,-7.761429,-0.294968,-0.148407,-9.79765,0.392922,-3.089372,0.950248,-1.627538,2.587433,-0.597107,-0.61676,0,13.9557,38.7573,18.782,141.2234,76.1745,167.0874,0,71.55493,60.013874,30.368105,56,NaN,9.468,7.5850005,168.6,19 / 35,600018,2020-01-16 19:10:01:653
0.571823,-14.592087,-6.816772,-0.637328,-8.853217,-4.169502,-0.117405,0.702186,-5.921357,-0.641739,0.576813,-0.260254,0,12.207,29.007,32.0328,158.0339,60.386,169.5837,0,65.1389,60.013794,30.368149,51,NaN,6.732,7.5850005,163.7,20 / 35,605017,2020-01-16 19:10:06:652
1.613297,-11.482025,-1.834442,-1.364395,-8.903218,-3.878339,5.78127,-9.25752,-0.386556,-2.402801,1.340073,1.249573,0,17.1051,40.7578,4.3823,169.6333,82.2898,110.2655,0,55.14708,60.013733,30.368174,52,NaN,4.608,10.6189995,181.2,14 / 26,610018,2020-01-16 19:10:11:653
-0.497192,-10.855942,-5.084579,-0.023868,-9.674967,1.601513,-2.149803,1.073451,-4.281543,1.74588,-1.483414,-0.480774,0,14.5554,43.7576,0.5829,121.972,85.1104,139.4979,0,64.88867,60.013687,30.368105,47,NaN,4.86,13.653,158.3,8 / 26,615018,2020-01-16 19:10:16:653
-2.413757,-8.751434,11.357605,-1.072711,-8.753121,-4.289819,6.374656,4.28106,3.770595,1.697937,-1.712448,-0.928177,0,14.006,31.5094,25.0809,143.3139,67.2066,169.8247,0,57.66136,60.013626,30.36804,43,NaN,6.192,16.687,153.7,8 / 25,620018,2020-01-16 19:10:21:653
2.770889,-0.758392,3.46872,-1.133786,-7.980098,-5.585959,-2.361405,1.996736,5.294256,-1.150574,2.085754,0.41832,0,16.1057,35.9085,18.2816,133.9494,67.3234,156.5261,0,53.78966,60.01356,30.36796,44,NaN,4.644,15.170001,186.8,10 / 35,625017,2020-01-16 19:10:26:652
-1.937302,-14.758484,7.155777,-0.479936,-9.773045,0.653947,-7.888426,-2.07292,-3.473215,0.774002,-0.721756,-0.241089,0,10.8063,43.9072,-8.0673,299.0665,73.4442,-9.8393,0,65.52071,60.013493,30.367903,46,NaN,5.868,12.136,176,15 / 35,630018,2020-01-16 19:10:31:653
-0.499588,-7.213165,2.110001,-0.826138,-9.577891,-1.936975,-4.135796,-1.597238,-4.273996,3.03981,-3.711594,-1.7724,0,14.7568,33.2077,23.1827,125.1684,62.9259,169.7357,0,62.1695,60.013397,30.367949,45,NaN,7.308,9.101999,179.4,16 / 35,635018,2020-01-16 19:10:36:653
3.754913,-2.841354,3.663834,-0.819233,-8.098542,-5.469264,3.437819,6.504665,6.722297,-0.800644,1.502518,0.680725,0,15.3564,33.9081,23.082,144.9131,65.9542,162.2131,0,72.24573,60.01336,30.36794,46,NaN,3.996,12.136,182.5,15 / 35,640018,2020-01-16 19:10:41:653
-4.405731,-13.190292,-3.643265,0.166274,-9.384652,2.840959,-4.943379,-2.868885,-3.457207,-0.341156,-0.322449,0.137436,0,9.9548,38.5086,-8.7173,265.5613,82.4745,10.5234,0,60.24561,60.0133,30.36795,44,NaN,7.02,10.6189995,170.8,8 / 24,645018,2020-01-16 19:10:46:653
-1.664368,-7.759033,14.288116,-0.871537,-8.612126,-4.608914,6.955433,4.12963,3.43276,0.842529,-1.169693,0.048126,0,11.4059,33.7585,26.4816,165.7315,68.292,164.032,0,64.90891,60.01323,30.367968,40,NaN,4.248,16.687,188.8,9 / 25,650018,2020-01-16 19:10:51:653
-6.076874,-9.613342,-2.921417,-1.145613,-9.235268,-3.093186,5.000749,-8.070102,2.781604,-2.640167,0.305878,0.291016,0,14.3555,37.9074,13.7817,229.6895,84.8895,92.9316,0,60.44568,60.013157,30.367975,38,NaN,3.132,18.203999,183.3,9 / 26,655018,2020-01-16 19:10:56:653
1.608505,-6.87677,1.183441,-0.212055,-9.76369,0.892058,-1.958971,1.560055,-4.006754,3.566757,-3.109711,-1.796905,0,13.1042,35.7559,21.3364,180.6833,82.5747,147.6917,0,66.09209,60.013103,30.368015,38,NaN,6.768,18.203999,168.6,12 / 35,660018,2020-01-16 19:11:01:653
2.621262,-0.80867,1.911285,-1.538909,-8.168514,-5.203606,3.736566,7.266054,9.340638,0.074112,1.7509,0.582016,0,12.5076,28.9078,30.5817,159.5668,72.8681,153.1305,0,59.39751,60.01303,30.368114,43,NaN,2.808,16.687,163.2,16 / 35,665018,2020-01-16 19:11:06:653
-4.512268,-12.480408,1.06134,0.242335,-9.42994,2.681024,-5.013224,-3.13028,-3.624142,0.982071,-0.531784,-0.216766,0,8.2047,45.8054,-1.2115,297.2211,82.8311,5.0466,0,63.43305,60.01294,30.368187,46,NaN,3.204,15.170001,181.7,20 / 35,670018,2020-01-16 19:11:11:653
1.722229,-15.03981,-11.179016,-0.949469,-8.838784,-4.140627,0.713767,-7.644727,-12.401561,1.137955,0.590118,-0.419876,0,8.725,31.6284,32.1075,184.585,64.8761,162.0119,0,64.92716,60.012856,30.368212,47,NaN,6.984,15.170001,217.7,22 / 35,675017,2020-01-16 19:11:16:652
-6.416855,-8.963318,-0.515244,-1.429538,-9.236244,-2.969615,5.379607,-9.087894,1.140429,-2.957809,0.231491,0.467316,0,15.4999,41.6733,15.683,158.2221,84.2393,87.776,0,56.9061,60.012764,30.368248,48,NaN,5.76,16.687,194.2,22 / 36,680018,2020-01-16 19:11:21:653
-0.187149,-5.45343,3.827835,-0.311589,-9.747334,-1.030918,-4.04317,-1.679607,-4.63091,2.214234,-0.212021,-0.974518,0,14.2044,38.002,20.3537,156.1776,61.9039,171.8962,0,68.1399,60.01267,30.368315,48,NaN,8.1,13.653,167.3,23 / 36,685018,2020-01-16 19:11:26:653
-5.818313,-8.676025,-2.468902,-1.745549,-8.792232,-3.977452,-2.837245,-0.712926,2.886862,-3.060425,0.994568,0.117371,0,18.7607,34.2682,23.7412,162.6174,81.154,130.4744,0,57.61833,60.012615,30.36842,50,NaN,6.804,13.653,176.7,24 / 36,690018,2020-01-16 19:11:31:653
-2.833938,-7.265838,1.170273,-0.490558,-9.792337,-0.199668,0.921565,2.947852,0.329934,1.921814,0.187454,-0.360046,0,14.2563,37.6068,18.782,133.7777,68.9229,162.2011,0,61.90987,60.012543,30.36844,49,NaN,7.416,13.653,192.9,23 / 36,695018,2020-01-16 19:11:36:653
-3.093704,-12.41098,-4.136474,-1.009735,-9.026361,-3.698055,0.690935,5.59917,1.337922,-0.235168,0.82431,-0.330749,0,16.3574,20.4071,28.1311,148.0429,56.2257,166.6568,0,61.80403,60.012474,30.368462,48,NaN,4.248,13.653,172.5,23 / 36,700018,2020-01-16 19:11:41:653
-5.030609,-12.614487,-2.040344,-0.325575,-9.794456,0.36475,-3.679607,-3.27816,-5.770741,-0.818222,-0.136383,0.271667,0,8.2062,44.3085,-11.2183,289.7352,73.6531,-11.7537,0,64.01667,60.012417,30.368473,46,NaN,6.228,15.170001,193.5,25 / 36,705018,2020-01-16 19:11:46:653
1.160797,-8.653275,-1.47052,-0.332618,-9.749848,-1.000108,4.872614,8.793561,11.799559,3.00325,-2.514587,-1.368851,0,8.9066,36.2076,28.4332,165.5375,64.8373,167.81,0,60.83542,60.012318,30.368479,42,NaN,7.812,15.170001,185.7,25 / 36,710017,2020-01-16 19:11:51:652
2.669144,-1.313843,3.935578,-1.631416,-8.770604,-4.072516,-0.306027,4.645241,9.210709,-2.122635,1.851395,1.369232,0,19.9051,39.3585,17.8818,168.9316,79.6905,140.0251,0,54.79274,60.012264,30.368507,40,NaN,4.608,15.170001,175.1,25 / 35,715018,2020-01-16 19:11:56:653
-4.24292,-12.823975,-3.286529,0.410691,-9.402957,2.754294,-2.397996,-1.564472,-6.261954,1.403214,-0.312515,-0.28476,0,12.6556,47.5082,-1.3672,291.9919,83.7651,-4.6315,0,65.54209,60.01219,30.368523,37,NaN,5.256,15.170001,197.2,25 / 35,720018,2020-01-16 19:12:01:653
10.585571,-4.702835,-16.105087,-1.387356,-8.813249,-4.070906,-1.109394,-6.912914,6.525748,-0.919418,0.281372,-0.03656,0,9.8572,37.3596,24.4797,157.3719,66.7481,165.7041,0,60.38187,60.012093,30.368523,40,NaN,4.5,15.170001,176.1,24 / 35,725018,2020-01-16 19:12:06:653
1.421753,-2.339767,5.291901,-1.412281,-8.394898,-4.868422,-3.059385,3.300232,6.26379,-2.074875,3.213516,1.330887,0,16.9052,38.1592,13.8824,125.5723,73.7167,158.944,0,58.91208,60.01203,30.368553,43,NaN,7.488,15.170001,168.2,24 / 35,730018,2020-01-16 19:12:11:653
-3.908935,-12.178741,-1.756638,0.188343,-9.643417,1.77184,-3.972345,1.515934,-2.25541,1.588043,-1.236801,-0.426804,0,10.6064,44.8074,-0.8179,307.0645,79.5315,-6.0676,0,65.81395,60.01195,30.36857,42,NaN,7.56,15.170001,184.1,23 / 35,735018,2020-01-16 19:12:16:653
7.353394,-3.976196,-6.290054,-0.808637,-8.717782,-4.417779,0.696064,-6.359059,2.290387,0.521347,-0.490936,-0.200241,0,7.6065,37.558,25.7813,172.7452,69.6683,166.187,0,64.15651,60.011883,30.368591,40,NaN,4.608,15.170001,184.9,24 / 34,740018,2020-01-16 19:12:21:653
-3.726974,-7.109009,1.525818,-1.838822,-8.585728,-4.367425,-4.315119,-0.158432,3.088218,-2.020554,-0.140106,0.516144,0,17.5049,37.1597,17.2302,153.1805,76.5324,150.4597,0,58.39591,60.011852,30.368649,41,NaN,0,15.170001,,24 / 34,745017,2020-01-16 19:12:26:652
-5.254471,-11.95607,-1.861984,0.255231,-9.590103,2.033511,-1.017346,-0.533334,-6.358568,1.759018,-0.91687,-0.42839,0,15.7059,78.4576,13.2324,335.2069,77.937,-7.1539,0,66.77898,60.011757,30.368698,43,NaN,4.968,15.170001,175.6,24 / 34,750018,2020-01-16 19:12:31:653
0.654419,-9.202744,-6.808395,-0.460482,-8.968637,-3.939781,0.719141,-2.732918,-2.141707,-0.089218,0.620316,-0.422714,0,11.3556,28.7079,31.7825,162.01,57.9563,168.2347,0,69.81934,60.011658,30.368725,43,NaN,2.232,13.653,184.2,24 / 34,755018,2020-01-16 19:12:36:653
7.426422,-20.706879,-7.605667,-0.572373,-9.789819,-0.047027,-6.321302,-2.287331,-5.802003,-3.15773,0.950531,1.187073,0,11.2061,47.5082,-9.4681,298.1016,74.6282,-13.9523,0,67.7572,60.011585,30.36873,43,NaN,6.156,13.653,176.8,24 / 34,760018,2020-01-16 19:12:41:653
-1.095749,-14.206619,8.54921,-0.467236,-9.753297,-0.908447,-2.858128,-2.746002,-3.539325,0.395996,-1.746353,0.225677,0,16.0049,31.3583,28.7827,139.7751,61.6304,170.2078,0,61.10193,60.011517,30.368792,45,NaN,6.084,13.653,158.2,22 / 34,765018,2020-01-16 19:12:46:653
4.352265,-1.568832,4.257599,-1.463773,-8.639249,-4.403536,-4.494985,1.747495,3.313454,-1.75885,2.626206,0.448502,0,19.2062,41.9083,11.5326,129.5781,77.9511,154.331,0,57.11316,60.011463,30.36881,45,NaN,5.976,15.170001,142.3,22 / 34,770017,2020-01-16 19:12:51:652
-4.584091,-12.658768,-0.570312,0.512724,-9.450223,2.569201,-6.560837,-2.699919,-4.135817,1.741425,-0.694046,-0.451477,0,15.506,44.4077,0.2838,219.3055,87.1341,55.7289,0,64.50624,60.011383,30.368822,43,NaN,4.86,13.653,172.7,20 / 34,775018,2020-01-16 19:12:56:653
-2.851898,-9.136902,11.149307,-0.738541,-8.739631,-4.386774,1.228734,-1.32012,-1.378398,-0.626114,-1.856613,-0.025192,0,12.4557,36.9583,25.0824,154.843,67.2258,164.9117,0,62.52356,60.0113,30.368786,43,NaN,5.148,15.170001,187.7,22 / 34,780018,2020-01-16 19:13:01:653
-6.327072,-9.930588,-2.595795,-1.194402,-9.397731,-2.535045,4.535343,-8.965634,0.504816,-3.230865,0.142715,0.337891,0,13.1058,44.2078,-1.8677,250.3398,85.691,24.6921,0,58.05615,60.011227,30.368765,44,NaN,9.504,15.170001,161.1,21 / 34,785018,2020-01-16 19:13:06:653
-4.473968,-12.021912,-4.452499,0.361077,-9.467949,2.529422,-2.128748,1.256585,-3.670065,1.89679,-0.600662,-0.496399,0,11.3556,41.9571,10.1837,294.1673,86.6728,26.6862,0,65.87889,60.011135,30.368835,44,NaN,4.608,15.170001,176,18 / 33,790017,2020-01-16 19:13:11:652
0.491608,-13.83313,-10.593628,-0.75843,-8.668527,-4.522368,-0.377317,-5.436409,-0.3269,-0.883911,-0.463608,-0.445969,0,10.1044,38.5574,25.1343,170.6201,68.9982,162.1038,0,61.63996,60.01106,30.368818,43,NaN,4.356,13.653,182.9,19 / 34,795017,2020-01-16 19:13:16:652
-1.802032,-10.448929,-2.503631,-1.17737,-9.730136,-0.329621,0.484911,-4.791806,5.715758,-2.793228,0.792175,1.307282,0,9.906,45.607,-3.7186,309.2026,75.9457,-6.9402,0,61.00337,60.010986,30.368866,45,NaN,7.524,15.170001,171.7,19 / 34,800017,2020-01-16 19:13:21:652
2.938492,-6.062744,-1.930206,-0.852922,-9.768012,-0.169801,-1.796507,0.663228,-3.422465,1.971878,0.043823,-0.594925,0,10.7056,33.2581,27.6825,178.222,65.6931,159.3699,0,64.25717,60.010906,30.368904,43,NaN,9.468,15.170001,174.1,19 / 34,805018,2020-01-16 19:13:26:653
1.184738,-0.858948,1.799957,-0.506419,-8.876693,-4.137422,1.206128,7.543543,5.323788,2.645844,1.175125,0.672562,0,14.0076,33.0093,25.5798,121.6474,56.3684,168.499,0,59.33283,60.01083,30.368942,46,NaN,4.284,13.653,163.6,20 / 34,810017,2020-01-16 19:13:31:652
-1.481216,-15.129593,-10.40329,-0.875414,-9.767217,0.074322,-2.266016,-4.219671,-0.728637,-1.136032,0.110229,0.583969,0,11.557,46.257,-10.3668,270.2435,79.0639,-5.3727,0,63.49697,60.010742,30.369005,46,NaN,5.796,13.653,177.5,20 / 34,815018,2020-01-16 19:13:36:653
-0.70668,-13.764893,3.170639,-1.135563,-8.79383,-4.189204,0.626515,-4.158056,9.746622,1.754211,-1.499039,-0.730041,0,8.757,36.1588,27.9816,158.5244,66.499,171.6133,0,62.39138,60.01064,30.369019,48,NaN,6.588,13.653,183.2,20 / 34,820017,2020-01-16 19:13:41:652
-0.827591,-2.108719,4.686157,-1.268858,-8.310148,-5.049934,-2.565675,3.444289,6.723874,-0.745789,2.13884,0.48613,0,13.707,43.0084,13.9816,126.4695,73.6167,157.0033,0,59.07941,60.010612,30.369013,49,NaN,5.472,13.653,179.9,21 / 34,825017,2020-01-16 19:13:46:652
-6.725708,-12.41217,-2.364761,0.471963,-9.434223,2.63497,-7.065402,-2.26744,-4.248525,1.720841,-0.046021,-0.447922,0,10.7559,45.9579,0.2853,315.7262,77.5811,-6.9834,0,61.35832,60.010536,30.369019,47,NaN,6.624,13.653,177.9,20 / 33,830018,2020-01-16 19:13:51:653
7.481491,-5.925079,-8.856644,-0.852709,-9.520643,-2.191036,0.637627,-0.493848,8.224205,2.912689,-3.163681,-1.487625,0,6.2057,35.5087,28.0823,185.9223,66.7922,165.3916,0,61.38701,60.010544,30.369005,47,NaN,0,13.653,,20 / 34,835017,2020-01-16 19:13:56:652
0.10495,-2.093155,4.43956,-1.620326,-8.664013,-4.298815,-2.636133,-0.142539,2.857724,-2.088013,1.877853,1.536667,0,13.9572,42.2089,12.1796,166.4419,79.1977,138.1785,0,53.57781,60.01049,30.369022,48,NaN,0,13.653,,21 / 34,840017,2020-01-16 19:14:01:652
-4.873794,-11.721451,0.03183,0.26833,-9.553653,2.196837,-3.713739,2.056036,-2.980777,1.19957,-0.35228,-0.307846,0,9.1553,44.7083,4.332,317.2873,83.0201,-1.3325,0,70.7052,60.0104,30.36906,54,NaN,4.752,13.653,177,21 / 34,845017,2020-01-16 19:14:06:652
3.790817,-7.391525,5.937134,-0.694182,-8.587458,-4.68445,-0.397669,-5.494061,6.080889,-1.263153,0.536514,0.165482,0,6.7062,33.5571,28.7827,165.934,66.0862,172.8519,0,73.08736,60.010296,30.369047,56,NaN,6.66,13.653,198.5,22 / 34,850018,2020-01-16 19:14:11:653
-3.570145,-5.758682,0.047394,-1.027499,-9.72121,-0.782749,0.151941,-4.341764,7.630173,-3.24649,0.896927,0.325821,0,10.556,44.5587,4.8813,327.905,77.9222,-9.4141,0,68.53144,60.010216,30.369047,58,NaN,6.768,13.653,186,23 / 34,855018,2020-01-16 19:14:16:653
-3.49353,-9.539124,-2.180405,-0.191372,-9.803412,0.163927,1.725913,2.768107,0.789744,1.516831,0.446838,-0.576111,0,9.5566,41.4078,17.4332,158.0883,78.6533,162.2543,0,66.50121,60.010143,30.368996,56,NaN,7.812,13.653,187,23 / 34,860017,2020-01-16 19:14:21:652
1.351135,-1.40123,1.656296,-1.588575,-8.267887,-5.028802,-1.644519,3.544037,7.291427,-0.611206,1.570877,0.223907,0,11.7065,38.208,17.981,174.8546,74.6882,148.8888,0,52.88474,60.01007,30.368986,57,NaN,5.22,13.653,201.6,23 / 34,865017,2020-01-16 19:14:26:652
-4.236938,-13.555405,-1.13295,-0.039864,-9.519303,2.356199,-2.449434,1.740765,-1.312519,1.764694,-0.911545,-0.343704,0,11.853,39.3066,6.5384,243.875,87.338,63.134,0,65.89444,60.01001,30.36898,55,NaN,0,13.653,,24 / 33,870018,2020-01-16 19:14:31:653
0.902222,-9.042328,-4.758957,-0.747334,-8.95478,-3.927314,2.322461,-12.117595,-13.903991,-0.171066,0.442764,-0.243042,0,10.8063,31.0577,31.3324,183.5351,60.586,159.0191,0,69.04004,60.009968,30.36896,53,NaN,5.328,13.653,214.8,23 / 33,875018,2020-01-16 19:14:36:653
-4.230957,-13.124451,-3.360748,0.218178,-9.383729,2.840497,-0.949308,0.387886,-6.367895,0.295685,-0.612015,-0.101532,0,9.2575,46.6583,-4.2664,318.5214,73.1119,-4.3923,0,67.36161,60.00986,30.368904,49,NaN,5.94,15.170001,197.1,23 / 33,880019,2020-01-16 19:14:41:654
6.60521,-4.178512,2.187821,-0.643247,-8.046369,-5.568892,0.108785,-1.103004,-3.464751,-0.2341,-0.310028,-0.436554,0,10.4065,27.2583,31.9824,159.3276,56.6089,170.954,0,66.71926,60.009785,30.368866,46,NaN,4.068,15.170001,199,24 / 33,885018,2020-01-16 19:14:46:653
4.221771,-21.295853,-11.8853,-0.902954,-9.764991,0.002668,-2.336608,-3.737495,-3.977625,-2.614792,0.146973,0.67984,0,11.9064,41.658,0.5814,294.0372,74.003,-4.1064,0,57.98088,60.00971,30.368883,45,NaN,6.372,15.170001,170.9,24 / 33,890018,2020-01-16 19:14:51:653
3.199448,-4.348495,3.702149,-1.259048,-8.598348,-4.544623,2.119281,-3.373614,5.986533,-0.369217,-0.168167,0.230469,0,5.4077,28.7567,29.3335,191.6542,58.1765,166.3374,0,62.31449,60.009617,30.368956,45,NaN,5.004,15.170001,155.7,24 / 33,895018,2020-01-16 19:14:56:653
-5.602829,-14.041428,-1.832046,-0.194451,-9.581083,2.082166,-4.697094,-4.332079,-4.897648,1.775513,0.112534,-0.485565,0,19.8563,35.4584,-7.1182,249.0034,83.6226,11.7425,0,65.43399,60.009556,30.368956,44,NaN,5.4,15.170001,204.2,24 / 33,900018,2020-01-16 19:15:01:653
-3.834717,-17.694977,13.331619,-0.72195,-8.645232,-4.572651,-0.515094,-6.482233,-5.945167,-0.550476,-0.730621,-0.14325,0,18.4052,23.3566,22.9828,130.7301,61.7865,170.0265,0,67.2489,60.009457,30.368975,46,NaN,5.292,13.653,163.5,24 / 33,905018,2020-01-16 19:15:06:653
-5.383758,-12.584549,-7.063385,-1.137247,-9.736948,-0.262483,-4.123685,-3.076229,-5.48223,-1.569763,0.361984,0.769135,0,15.4053,37.6083,-6.0684,285.1897,76.4804,-4.3981,0,58.31485,60.009396,30.369041,45,NaN,8.64,13.653,159.3,24 / 33,910018,2020-01-16 19:15:11:653
7.492264,-4.895569,-2.777756,-0.291262,-8.531269,-4.827317,-0.552545,-5.55823,6.768105,-0.231964,-1.597397,-0.087158,0,10.6049,30.5573,28.7338,158.5949,64.9927,169.8065,0,59.02642,60.009296,30.369078,43,NaN,4.824,13.653,165.4,24 / 34,915017,2020-01-16 19:15:16:652
3.672302,-17.341827,1.505463,-0.979861,-9.752557,0.31287,4.178854,-8.022029,3.082911,-3.125412,0.962967,1.373322,0,12.3062,44.9081,-12.6175,279.5576,73.4517,-9.1479,0,67.22742,60.009247,30.36911,44,NaN,7.056,13.653,158.7,24 / 34,920018,2020-01-16 19:15:21:653
-7.993438,-14.043823,-14.59314,-0.484339,-9.681219,-1.486541,-3.700695,-3.772847,-3.960805,2.520676,-1.108444,-1.236572,0,11.0016,31.1096,27.2827,149.5642,63.7326,171.4584,0,59.34412,60.009155,30.369198,47,NaN,7.812,15.170001,158.9,24 / 34,925018,2020-01-16 19:15:26:653
-2.228195,-3.59552,3.631516,-1.020765,-8.055518,-5.498821,1.106027,5.78206,9.897781,-2.652435,0.483597,0.60527,0,18.0557,41.4078,0.032,189.5615,83.6457,82.8965,0,57.65003,60.0091,30.369244,48,NaN,3.888,15.170001,151.8,23 / 34,930018,2020-01-16 19:15:31:653
-2.705841,-11.343155,-5.954864,-0.134664,-9.712241,1.350791,-2.373623,1.486238,-3.134284,2.029587,-0.538162,-0.416321,0,13.4567,40.6082,9.433,147.4246,84.2007,149.0154,0,65.19855,60.009026,30.369316,49,NaN,7.668,15.170001,147,23 / 34,935017,2020-01-16 19:15:36:652
2.317185,-27.670425,-16.205643,-1.048639,-9.064312,-3.59291,3.267863,-14.048155,-11.214371,1.106537,1.666748,0.683395,0,16.156,28.7079,26.4313,128.5259,55.2451,166.0425,0,68.87969,60.008938,30.36934,50,NaN,5.796,6.068,150.7,23 / 34,940017,2020-01-16 19:15:41:652
-5.161102,-13.433304,-3.438553,0.349911,-9.385323,2.821996,-5.821851,-3.111901,-4.507575,0.1091,-0.556091,-0.247833,0,15.5563,44.6579,-3.0167,288.1078,79.3285,0.596,0,71.17484,60.008884,30.369347,49,NaN,5.652,6.068,176.5,23 / 34,945018,2020-01-16 19:15:46:653
4.954407,-16.766022,-22.098969,-0.907145,-8.851345,-4.123247,-2.97005,-8.768823,-9.241173,-0.310791,-0.627121,0.143478,0,11.8057,34.108,30.8319,169.3652,68.2655,164.7155,0,69.8488,60.008812,30.369364,50,NaN,4.752,7.5850005,163.1,14 / 23,950018,2020-01-16 19:15:51:653
3.127625,-18.06009,3.558487,-0.163947,-9.801148,0.284594,-1.951474,-2.997661,-3.852224,-1.006409,0.056778,0.330963,0,13.7558,43.5577,-16.8182,274.1188,72.2874,-15.3347,0,66.06043,60.008766,30.369337,48,NaN,3.348,10.6189995,184,10 / 24,955018,2020-01-16 19:15:56:653
-3.092514,-15.221771,-2.429397,-1.041439,-9.224555,-3.161229,-2.783203,-5.304133,-0.148853,-0.455505,-2.002731,0.446182,0,16.5558,29.2587,23.2315,120.3851,62.5753,174.0422,0,69.09949,60.008694,30.369406,49,NaN,5.724,9.101999,159.8,9 / 25,960018,2020-01-16 19:16:01:653
-1.106522,-3.223221,5.34697,-1.424161,-8.920641,-3.816322,3.742765,-5.616489,1.668945,-2.036346,1.735458,1.429962,0,10.1059,45.1584,-4.718,303.7836,75.7874,-4.143,0,65.98732,60.00863,30.369371,47,NaN,4.284,10.6189995,187.2,10 / 25,965018,2020-01-16 19:16:06:653
-2.061798,-7.518417,1.31752,0.200907,-9.63105,1.836547,-2.965716,2.110259,-2.27294,1.395935,1.17833,-0.200607,0,14.5065,35.0571,16.333,124.3943,69.6286,162.1171,0,68.21158,60.00859,30.369349,48,NaN,2.808,13.653,191.1,12 / 24,970018,2020-01-16 19:16:11:653
-2.144409,-13.129242,-5.215057,-0.237532,-8.425657,-5.012211,3.581503,8.255377,9.252059,2.308869,0.109329,0.59639,0,19.2062,33.8089,13.1821,84.143,60.134,163.7536,0,68.27829,60.008514,30.369379,48,NaN,6.984,15.170001,180.1,10 / 25,975018,2020-01-16 19:16:16:653
3.185089,-14.244934,9.101074,0.025801,-9.515778,2.37059,-6.16356,-3.346472,-4.246437,0.482117,-0.799683,-0.206635,0,9.3567,47.8073,-5.5649,312.8941,73.0674,-2.1146,0,60.51706,60.00844,30.369398,47,NaN,3.708,15.170001,184.4,10 / 25,980017,2020-01-16 19:16:21:652
-8.073639,-12.246979,-10.520615,-0.580299,-9.726464,-1.10884,-3.324959,-4.316188,0.752607,3.117935,-2.337936,-1.722519,0,5.9555,34.3079,28.4821,179.3037,65.6709,168.1991,0,64.12781,60.00836,30.369383,47,NaN,6.372,12.136,188.5,13 / 34,985018,2020-01-16 19:16:26:653
3.812363,-2.379272,5.105149,-0.437153,-8.191281,-5.374215,-1.071156,5.045433,9.860718,-2.121399,3.170548,0.857376,0,15.9073,42.7094,8.7799,161.0833,80.816,131.0781,0,62.95619,60.008278,30.3694,49,NaN,0,7.5850005,,18 / 34,990018,2020-01-16 19:16:31:653
-4.0047,-12.110504,0.701019,0.098464,-9.54819,2.234447,-3.345499,-0.614922,-6.588819,1.694382,-0.660141,-0.506332,0,14.357,42.308,10.5331,242.4649,86.2202,73.683,0,64.59406,60.008247,30.369436,52,NaN,0,6.068,,19 / 34,995017,2020-01-16 19:16:36:652
9.103561,-4.839309,-13.045288,-0.387034,-8.810968,-4.288055,-2.152459,-4.329982,8.479511,-0.943741,0.233795,-0.278015,0,5.806,35.1074,26.0818,176.2308,68.4724,168.6986,0,60.44985,60.008175,30.369476,51,NaN,4.536,9.101999,169.7,9 / 23,1000018,2020-01-16 19:16:41:653
-1.787674,-0.781143,5.986222,-1.408148,-8.84341,-3.997699,5.366849,-7.846261,2.252649,-3.468948,-0.131592,-0.37709,0,8.8058,44.5084,-3.6682,312.5325,75.5713,-8.8203,0,53.69092,60.008095,30.369461,45,NaN,6.768,16.687,171.6,9 / 24,1005018,2020-01-16 19:16:46:653
-1.392624,-14.744125,-9.560532,-0.634304,-9.785545,0.105588,-8.115098,-2.623625,-4.325297,-0.955292,-0.18219,0.58432,0,7.9056,42.9581,-4.3671,299.8349,79.773,-8.2603,0,65.11489,60.007996,30.369492,51,NaN,4.968,18.203999,175.9,11 / 21,1010018,2020-01-16 19:16:51:653
-4.368622,-12.115295,-3.858749,0.245523,-9.676942,1.570637,1.267478,3.945299,0.067272,2.156357,-1.03511,-0.018265,0,7.0068,37.0575,17.9825,87.9551,63.0893,174.7292,0,63.71497,60.00791,30.369535,52,NaN,6.156,16.687,167.2,10 / 22,1015018,2020-01-16 19:16:56:653
6.345429,-4.292236,-3.089004,-0.965756,-8.807977,-4.202052,0.468836,-1.089181,-2.778223,-0.803848,-0.227112,-0.297714,0,3.8544,33.5571,24.6826,173.6455,64.9976,173.0673,0,62.3971,60.007824,30.369564,51,NaN,6.408,18.203999,175.7,9 / 22,1020017,2020-01-16 19:17:01:652
2.584137,0.104721,4.00621,-0.673251,-8.933828,-3.987961,2.09811,7.233562,10.2882,2.769058,1.660355,0.486847,0,12.0056,39.3082,15.033,144.7262,74.0876,156.5667,0,55.18642,60.007736,30.36954,50,NaN,5.652,12.136,212.2,12 / 23,1025018,2020-01-16 19:17:06:653
4.985535,-14.46759,0.884171,-1.289737,-9.632547,-1.311865,4.647328,-5.456532,2.830812,-3.056869,0.853058,0.867508,0,4.1061,44.9081,-5.9174,320.8221,76.2171,0.2397,0,57.34059,60.007664,30.36952,45,NaN,3.888,12.136,194.1,12 / 21,1030018,2020-01-16 19:17:11:653
-5.869781,-12.25296,-3.56784,0.700339,-9.428809,2.603358,-6.496867,-3.560922,-5.107301,-1.255859,0.276749,0.928925,0,5.2567,45.8572,-6.1691,322.5002,74.0436,-15.0569,0,61.36244,60.00763,30.36954,43,NaN,0,10.6189995,,13 / 20,1035017,2020-01-16 19:17:16:652
-4.439239,-9.370331,18.39775,-0.450612,-9.35443,-2.908946,1.972539,-0.560613,11.413542,0.34256,-1.427124,0.109207,0,9.4055,30.5084,29.2816,136.1155,59.2306,179.5474,0,61.67798,60.007614,30.369572,47,NaN,0,10.6189995,,9 / 20,1040018,2020-01-16 19:17:21:653
6.533386,-30.936111,-21.640472,-0.819518,-8.923326,-3.984095,2.963167,-14.131387,-15.77855,3.421707,0.59137,1.08783,0,-8.9432,36.5585,25.6821,246.2754,65.4951,168.3765,0,62.3814,60.00759,30.369572,46,NaN,4.752,9.101999,218.1,14 / 22,1045018,2020-01-16 19:17:26:653
1.767716,-20.92595,-1.894302,-0.211677,-9.752534,1.006818,-5.825581,-6.065494,-4.465399,-2.651016,0.460876,1.720062,0,2.6062,45.2087,7.4829,338.1616,83.978,11.8731,0,66.15561,60.007557,30.369505,49,NaN,2.34,10.6189995,254.8,17 / 31,1050017,2020-01-16 19:17:31:652
0.318039,-8.528778,0.514267,-0.681611,-9.598928,1.888482,-5.311571,-0.056132,-4.490881,1.226379,-0.83342,-0.617828,0,18.0557,44.7083,-4.6173,264.8536,78.1863,19.8461,0,65.23278,60.007484,30.36946,47,NaN,5.688,9.101999,188.8,12 / 22,1055018,2020-01-16 19:17:36:653
-1.290878,-7.68721,-3.033935,-0.155048,-8.979163,-3.939667,1.383118,-11.381653,-14.929544,0.481751,0.065842,0.027359,0,13.3057,40.6586,17.0822,87.8514,66.2939,177.7463,0,63.18862,60.007378,30.369534,42,NaN,5.328,9.101999,133.1,12 / 21,1060018,2020-01-16 19:17:41:653
2.08136,-23.038834,-2.225891,-1.459023,-9.254549,-2.897405,3.647452,-7.923098,3.141948,-3.254654,0.66629,1.328934,0,16.8564,42.8589,6.7322,303.2389,73.671,-7.9188,0,64.46622,60.007286,30.369577,38,NaN,3.744,9.101999,135,9 / 19,1065018,2020-01-16 19:17:46:653
-0.958084,-12.357101,-3.955704,-0.307158,-9.783236,0.60361,0.76953,2.079587,-2.235221,2.09758,-1.570404,-0.316193,0,4.9057,33.5571,4.7333,303.9777,86.0399,26.9701,0,65.63809,60.007233,30.369555,41,NaN,0,9.101999,,11 / 21,1070018,2020-01-16 19:17:51:653
-2.04863,-17.180222,-0.300964,-0.644063,-8.586867,-4.692685,0.518428,-0.054907,-2.365667,-0.286652,0.505615,-0.323639,0,2.0554,22.8088,26.7822,187.6682,61.118,172.1851,0,65.16432,60.00717,30.36952,40,NaN,5.544,10.6189995,208.7,10 / 20,1075018,2020-01-16 19:17:56:653
2.027496,-1.066055,6.370484,-1.494891,-8.566579,-4.533147,-4.267302,0.71127,3.689934,-2.230057,2.739304,1.671234,0,11.0596,25.9125,24.9771,166.7265,60.8736,161.7491,0,59.23851,60.00709,30.369446,44,NaN,5.4,10.6189995,204.1,11 / 21,1080018,2020-01-16 19:18:01:653
-4.478744,-13.422531,-2.818466,0.514425,-9.435461,2.622561,-4.840379,-2.913942,-3.819834,1.631531,-0.833954,-0.425018,0,4.0054,38.2584,-1.8677,334.9171,74.1856,-11.0979,0,64.24181,60.007023,30.369438,41,NaN,4.068,12.136,192.4,9 / 21,1085018,2020-01-16 19:18:06:653
-4.294403,-18.853777,8.281052,0.007616,-8.446622,-4.98246,1.328793,-10.058358,-0.633172,1.124115,-1.725235,-0.245346,0,6.3568,17.3569,22.7325,151.6072,59.4646,-179.9124,0,68.1163,60.00694,30.369421,46,NaN,4.248,16.687,195.1,8 / 20,1090018,2020-01-16 19:18:11:653
1.706665,-1.862122,5.376892,-1.521774,-8.836853,-3.970467,-4.56808,-0.117299,2.028135,-2.06102,1.978882,1.654907,0,8.2565,23.3582,24.8322,186.1791,64.3041,159.0295,0,58.49678,60.00684,30.36942,46,NaN,5.184,15.170001,183.6,15 / 31,1095018,2020-01-16 19:18:16:653
-2.218628,-11.097748,-3.801285,0.3488,-9.537651,2.254312,-3.655958,2.110316,-2.659774,1.640945,-2.065399,-0.405319,0,9.3567,37.7594,7.0313,282.2507,87.6238,33.3811,0,65.54959,60.00673,30.369415,48,NaN,7.668,13.653,206.8,20 / 31,1100018,2020-01-16 19:18:21:653
-0.918579,-19.609146,-3.956909,-0.739026,-8.574506,-4.701283,0.248682,-7.18929,3.403893,-0.970383,-1.301071,-0.455917,0,4.2572,24.559,21.582,168.3127,57.2386,169.0623,0,63.54293,60.00662,30.369324,51,NaN,3.492,15.170001,213.8,22 / 31,1105017,2020-01-16 19:18:26:652
-0.589371,-2.038101,5.745606,-1.226543,-9.405256,-2.491413,4.86256,-8.166404,2.111904,-3.214706,-0.369324,0.162476,0,17.8558,26.2085,7.1808,115.7055,73.5504,153.7886,0,53.47512,60.00654,30.369272,50,NaN,2.232,13.653,207.2,21 / 31,1110018,2020-01-16 19:18:31:653
-2.751327,-12.062622,-1.159286,0.228535,-9.494766,2.442863,-2.844814,2.250735,-2.737272,1.917023,-0.450989,-0.34993,0,9.9564,31.6086,-6.4667,286.5461,75.5112,-5.3446,0,67.0605,60.006493,30.369198,44,NaN,2.628,15.170001,246.8,23 / 31,1115017,2020-01-16 19:18:36:652
-1.302841,-8.807693,9.561951,-0.581402,-8.707505,-4.473445,1.00293,-6.683826,3.641179,-1.429672,0.731094,0.177567,0,4.5563,24.8581,24.2813,177.8501,69.167,169.4616,0,59.92073,60.00643,30.369116,40,NaN,4.896,15.170001,236.5,23 / 31,1120017,2020-01-16 19:18:41:652
-2.505936,-2.634247,4.857346,-1.021489,-8.052333,-5.503352,0.590305,6.173415,10.573036,-1.615753,2.826477,0.544006,0,13.2568,27.5589,19.4809,156.945,69.9379,157.9199,0,54.40764,60.006355,30.369078,41,NaN,3.708,15.170001,204.9,22 / 31,1125017,2020-01-16 19:18:46:652
-7.256027,-12.713837,-1.482498,0.510446,-9.33602,2.957794,-2.057215,-1.510826,-6.383262,1.642716,-0.194092,-0.368378,0,5.307,39.1083,-2.5681,293.3789,83.2966,-8.3668,0,64.88327,60.00628,30.369032,47,NaN,4.104,16.687,218.6,22 / 31,1130017,2020-01-16 19:18:51:652
-5.856613,-14.155151,-7.019088,-0.815818,-9.446132,-2.505077,1.659048,1.09227,8.536778,2.779007,-1.151047,-1.291611,0,8.0063,24.7086,24.4308,186.8458,67.9969,164.2142,0,60.8413,60.0062,30.368973,46,NaN,3.132,15.170001,190.5,21 / 31,1135017,2020-01-16 19:18:56:652
2.634415,-1.324615,1.738907,-0.838674,-8.341197,-5.088364,4.883353,7.352969,10.031164,-1.646988,3.237839,0.704865,0,7.7072,20.3583,25.1816,187.773,61.1823,158.2886,0,57.62972,60.00615,30.368948,49,NaN,2.376,15.170001,243.9,22 / 31,1140018,2020-01-16 19:19:01:653
7.184601,-18.182205,-0.316528,-0.674183,-9.779539,0.276523,-1.427483,-5.567354,-3.49825,-3.08049,0.920532,1.41008,0,6.2073,37.1582,-6.9168,305.5129,73.589,-14.5423,0,60.68395,60.006084,30.368914,45,NaN,2.52,15.170001,216.7,24 / 31,1145018,2020-01-16 19:19:06:653
-1.757736,-8.775375,-1.349625,0.179302,-9.655247,1.707177,-1.72011,1.448466,-2.563521,1.925018,-1.040802,-0.388626,0,3.9063,32.5073,9.8328,158.872,85.5604,174.3625,0,68.15334,60.005985,30.368822,47,NaN,7.884,15.170001,206.9,23 / 31,1150018,2020-01-16 19:19:11:653
-3.529449,-18.943558,17.115662,-0.316478,-8.710724,-4.493719,0.663821,-9.077691,-4.896837,-1.458969,1.00415,0.094833,0,-0.3937,36.409,32.0816,207.4053,57.9944,156.7119,0,64.72759,60.005894,30.368792,46,NaN,0,13.653,,24 / 31,1155018,2020-01-16 19:19:16:653
4.121216,-1.030136,5.467865,-0.933638,-8.076115,-5.484073,3.515049,6.567468,11.128428,-1.805725,2.055756,1.824814,0,26.9074,50.8087,47.3816,206.0528,82.1309,127.5337,0,65.10918,60.00582,30.368793,47,NaN,5.508,13.653,180.3,23 / 31,1160017,2020-01-16 19:19:21:652
-4.529022,-12.894608,-0.448196,0.581252,-9.419384,2.666033,-2.555312,-0.071945,-5.821913,-0.257706,-0.708786,0.011383,0,15.1566,40.5075,-0.2686,314.6488,73.8444,-12.2992,0,64.53318,60.00572,30.368706,47,NaN,7.02,13.653,225.8,25 / 31,1165018,2020-01-16 19:19:26:653
-3.202637,-10.371109,-9.412094,-0.378717,-9.596012,-1.985827,-2.184333,-3.266266,11.889761,3.497879,-3.374069,-1.747909,0,6.7566,36.8073,21.9833,169.4576,78.1033,169.2028,0,63.13452,60.005623,30.368633,44,NaN,7.632,15.170001,201.6,26 / 31,1170018,2020-01-16 19:19:31:653
2.841522,-0.760788,2.337448,-0.749067,-8.517023,-4.803082,4.223918,7.984961,8.96368,1.613068,1.460083,0.519867,0,8.1558,27.7573,30.7816,167.224,60.2842,171.1358,0,69.63625,60.005577,30.368591,46,NaN,0,15.170001,,26 / 31,1175018,2020-01-16 19:19:36:653
-3.536636,-15.487518,-0.40152,-0.490542,-9.711051,1.27486,-0.308735,-4.79766,6.948119,-0.611374,-0.133194,0.259415,0,7.7072,40.3091,-5.719,311.2053,72.2206,-8.7015,0,66.6691,60.00551,30.368568,49,NaN,7.884,15.170001,185.6,24 / 31,1180017,2020-01-16 19:19:41:652
-2.368255,-9.074661,-1.946976,-0.182086,-9.7918,0.507839,-3.554852,-1.088688,-4.528805,2.165939,-1.421631,-0.066208,0,9.9564,40.7593,14.3814,145.0391,77.1494,160.913,0,64.67856,60.005375,30.368515,46,NaN,7.884,15.170001,204.5,22 / 31,1185018,2020-01-16 19:19:46:653
-0.886246,-16.151917,-7.610458,-0.641878,-8.717237,-4.446141,1.713552,-11.70612,-15.078631,0.565384,-0.05542,0.046005,0,9.5062,32.608,23.4314,149.9791,66.9526,169.2644,0,58.9446,60.0053,30.368477,45,NaN,3.384,15.170001,172.8,22 / 31,1190018,2020-01-16 19:19:51:653
-5.601639,-10.101761,-2.431793,-1.193055,-9.238816,-3.06452,4.176178,-8.896098,1.740467,-3.023498,0.468857,0.578812,0,19.4061,37.9089,0.2823,281.3381,73.9727,-9.7342,0,59.50914,60.005253,30.36843,47,NaN,6.336,15.170001,188.7,22 / 31,1195018,2020-01-16 19:19:56:653
-3.366638,-11.422165,-5.79924,0.309995,-9.454333,2.586479,-2.460111,1.028078,-2.997957,1.723679,-1.418793,-0.508286,0,20.0058,42.2577,5.3848,95.726,78.7138,164.34,0,66.16872,60.00516,30.368397,49,NaN,6.084,15.170001,192,22 / 31,1200018,2020-01-16 19:20:01:653
-4.398544,-17.47351,9.208817,-0.846883,-8.718268,-4.409644,0.114082,-2.907036,0.242091,-1.173843,0.606812,0.191589,0,15.9561,29.509,22.3312,141.8743,56.3342,162.4094,0,62.72896,60.00509,30.368387,49,NaN,4.536,13.653,194.4,23 / 31,1205018,2020-01-16 19:20:06:653
-2.01152,-10.010788,-2.240265,-1.134242,-9.383458,-2.614304,-0.967692,-0.773377,1.672753,-3.488296,0.065491,0.256393,0,13.0554,34.3079,13.8824,139.1958,73.1065,156.5459,0,56.96135,60.005074,30.36834,46,NaN,0,13.653,,24 / 31,1210018,2020-01-16 19:20:11:653
-3.618042,-9.208725,-1.987671,-0.162726,-9.792457,0.501717,-2.014032,0.987944,-1.441036,1.815476,0.277115,-0.271439,0,15.2557,37.8082,9.6832,291.7439,86.9169,17.9699,0,63.40587,60.005013,30.368282,45,NaN,6.768,13.653,220.7,24 / 31,1215017,2020-01-16 19:20:16:652
-3.105682,-9.411041,-13.858124,-0.916118,-8.953883,-3.893467,4.862278,6.945057,9.752689,0.238525,1.301361,0.473175,0,7.7057,21.8582,28.7827,172.0598,55.6564,167.87,0,55.73598,60.004932,30.368208,46,NaN,5.292,15.170001,181.2,24 / 31,1220018,2020-01-16 19:20:21:653
-4.762466,-14.035446,-8.539413,0.479923,-9.341564,2.945376,-4.573458,-1.823649,-5.572714,0.967697,-0.479401,-0.348679,0,2.2552,43.3075,-1.1185,350.2712,72.2836,-9.2545,0,58.76044,60.00485,30.368166,45,NaN,6.408,13.653,209.1,23 / 31,1225018,2020-01-16 19:20:26:653
4.292404,-4.953033,-7.813965,-1.029117,-8.732105,-4.343001,-0.426882,-1.70897,-8.858236,-1.303986,-0.345886,0.032867,0,2.0065,25.3586,27.0325,199.0031,62.9269,166.6691,0,62.9249,60.00476,30.368082,42,NaN,5.652,13.653,190.4,21 / 31,1230018,2020-01-16 19:20:31:653
3.150375,-14.72258,6.277115,-0.516266,-9.715456,1.230357,1.757008,-4.157519,6.47558,-2.292724,0.588165,1.082321,0,11.3068,40.0085,-9.169,295.0389,71.6225,-8.476,0,63.78639,60.0047,30.368052,40,NaN,2.736,13.653,192.5,21 / 31,1235018,2020-01-16 19:20:36:653
2.488373,-7.423858,-0.06752,-0.365689,-9.796873,-0.240707,-2.668774,1.320779,-3.908891,3.54599,-3.253876,-1.692856,0,8.4564,40.6082,10.6323,203.7465,87.4413,123.3541,0,63.85787,60.00464,30.36801,40,NaN,6.264,13.653,201,21 / 31,1240018,2020-01-16 19:20:41:653
2.41774,-0.661423,2.576874,-1.168071,-8.321457,-5.055625,-1.456637,4.031242,7.528679,-0.581192,1.900391,0.268829,0,5.4581,29.1519,27.4399,188.6462,58.0546,166.9905,0,62.07877,60.004578,30.367933,37,NaN,0,13.653,,22 / 31,1245018,2020-01-16 19:20:46:653
-1.715836,-13.207047,-5.039078,0.504761,-9.347517,2.922245,-2.120114,-2.447135,-6.515968,-0.597885,-0.421341,0.182175,0,5.9067,44.8578,-6.1676,322.2213,72.3983,-9.8,0,60.29619,60.004517,30.367897,37,NaN,5.976,13.653,201.5,22 / 31,1250018,2020-01-16 19:20:51:653
5.642731,-17.504639,-7.009506,-0.678371,-8.541208,-4.770529,1.164976,-5.372186,8.338772,-0.747025,-1.632553,-0.812073,0,3.1555,28.9078,28.5324,185.7112,60.5705,171.9068,0,65.97585,60.004433,30.367857,33,NaN,4.608,13.653,205,23 / 31,1255018,2020-01-16 19:20:56:653
-2.679504,-4.756714,1.245697,-1.619659,-8.717718,-4.189092,-4.042798,-0.151072,2.247036,-2.13649,1.834534,1.575012,0,22.5555,37.8082,6.8802,136.6669,79.0962,137.7976,0,65.8279,60.004368,30.367804,37,NaN,6.804,13.653,198.6,23 / 31,1260018,2020-01-16 19:21:01:653
-0.749786,-8.87114,-1.917038,0.554996,-9.344436,2.922992,-2.317665,-1.375538,-6.624997,1.877258,-1.91803,-0.379395,0,16.2552,39.5569,-2.8671,281.4894,83.2193,-5.5557,0,65.52902,60.004295,30.36771,37,NaN,7.884,13.653,219.3,23 / 31,1265018,2020-01-16 19:21:06:653
10.24678,-4.174927,-10.773193,-0.471672,-8.67244,-4.553758,0.841276,0.401065,-1.058042,-0.302994,-1.708725,-0.129578,0,17.955,30.0583,26.4832,124.6052,62.1707,174.0865,0,62.91332,60.00422,30.367596,38,NaN,4.5,13.653,213.4,24 / 31,1270018,2020-01-16 19:21:11:653
-4.147156,-4.70404,1.300766,-1.155403,-9.251588,-3.040321,4.488004,-4.972782,3.78318,-2.621353,-0.495209,0.103348,0,24.4064,36.0092,2.9327,86.6498,70.6305,159.1919,0,64.32224,60.00419,30.367579,37,NaN,3.348,15.170001,213.3,21 / 31,1275018,2020-01-16 19:21:16:653
-2.939285,-7.178451,1.468353,0.009663,-9.673925,1.607934,-4.45276,0.94383,-2.564956,1.695801,-1.673569,-0.563141,0,17.0563,35.8582,2.8839,148.3601,84.4724,125.4721,0,68.1223,60.00412,30.367464,34,NaN,8.424,15.170001,202.4,21 / 31,1280018,2020-01-16 19:21:21:653
3.091721,-21.596329,-20.073471,-0.741508,-8.875452,-4.104498,1.572815,-13.333531,-11.475887,2.893875,0.738907,0.281433,0,17.2562,24.2081,20.0317,119.9668,58.4853,167.8933,0,57.70333,60.00406,30.367367,33,NaN,2.484,15.170001,187.8,20 / 31,1285018,2020-01-16 19:21:26:653
3.061783,-19.35176,-0.139343,-0.294001,-9.607396,1.944705,-2.874051,-3.982755,-5.544927,-1.496078,0.001205,0.850281,0,16.0065,35.1074,-13.4186,240.2967,78.4304,8.5969,0,56.51142,60.00402,30.367281,29,NaN,4.608,15.170001,232,21 / 31,1290018,2020-01-16 19:21:31:653
4.212204,-5.360046,0.556168,-1.013861,-9.545275,-2.007535,-3.786025,-4.410574,9.958945,3.054199,-3.229202,-1.370087,0,19.8563,32.3074,18.6829,152.6362,76.742,153.205,0,61.46486,60.003937,30.36716,27,NaN,7.668,15.170001,217.8,23 / 32,1295018,2020-01-16 19:21:36:653
-1.669159,-3.143021,3.461533,-1.343711,-8.263688,-5.106494,0.02487,4.378039,8.413245,-2.520691,1.576569,1.511978,0,22.2565,32.6584,12.1307,121.158,74.232,158.1189,0,67.20583,60.003857,30.367132,35,NaN,6.948,15.170001,201.9,23 / 32,1300018,2020-01-16 19:21:41:653
-5.860199,-12.215851,-2.763397,0.629725,-9.214899,3.29537,-2.386815,0.513859,-2.311059,1.762924,-1.711197,-0.568481,0,18.4067,36.2579,-10.6674,258.5613,80.2124,-3.0656,0,63.73133,60.00378,30.367071,31,NaN,7.056,15.170001,206.6,23 / 32,1305018,2020-01-16 19:21:46:653
-4.009491,-21.447891,8.47139,-0.97711,-9.083014,-3.565739,0.026419,-3.475459,-4.64264,0.923843,0.507568,-0.042404,0,20.256,26.9577,18.3319,126.6081,67.8515,164.6756,0,59.22783,60.003693,30.367006,31,NaN,5.58,15.170001,201.2,23 / 32,1310018,2020-01-16 19:21:51:653
3.734558,-22.349304,-5.887832,-0.392709,-9.755484,0.920163,4.067757,-5.856802,5.656087,-2.411865,0.694702,0.981842,0,12.8052,38.4079,-9.668,217.8134,84.1446,23.1119,0,51.4303,60.003647,30.367014,31,NaN,4.788,15.170001,186.7,24 / 32,1315017,2020-01-16 19:21:56:652
-4.678665,-11.326401,-4.891845,-0.776212,-9.674623,-1.403404,6.537454,3.72358,4.906834,3.651459,-3.520904,-1.827972,0,12.706,25.8575,23.3322,147.6161,60.9722,164.1764,0,61.92751,60.003548,30.366962,30,NaN,7.2,15.170001,203.2,24 / 32,1320017,2020-01-16 19:22:01:652
3.757309,-1.467071,3.764389,-0.821236,-8.094771,-5.474544,-2.315065,2.498386,6.329515,-2.080383,0.735184,0.905487,0,19.8563,32.6584,16.0324,122.537,68.35,159.255,0,59.69005,60.003513,30.366932,30,NaN,3.096,15.170001,218.2,25 / 32,1325018,2020-01-16 19:22:06:653
0.040298,-10.482437,-4.440536,0.268688,-9.618521,1.892683,-1.582606,-0.319681,-6.595528,1.813873,-1.062454,-0.371231,0,14.6561,39.2075,-3.6179,290.5756,78.7591,-8.0798,0,64.60205,60.00341,30.366924,35,NaN,10.008,13.653,207,24 / 32,1330018,2020-01-16 19:22:11:653
-2.314392,-18.265991,1.286392,-0.7063,-8.798418,-4.273096,-0.408148,-5.895769,4.924284,-1.303802,0.519104,0.223373,0,10.556,27.5085,23.3322,143.5133,63.791,170.6144,0,64.29982,60.003307,30.366886,39,NaN,6.48,15.170001,204.5,24 / 32,1335018,2020-01-16 19:22:16:653
-4.842666,-10.07782,-1.346023,-1.031426,-9.554221,-1.955351,-1.165926,-3.859806,1.805698,-3.038055,0.953018,1.396942,0,15.3061,39.0579,-2.8183,284.5202,79.48,1.1793,0,65.55605,60.003242,30.366922,41,NaN,5.652,15.170001,180.5,24 / 32,1340018,2020-01-16 19:22:21:653
0.371902,-11.819611,-4.39624,0.266789,-9.549207,2.216274,-0.397728,1.365274,-2.069364,1.970993,-1.735886,-0.437988,0,20.9061,40.1566,0.5341,189.5947,88.1338,83.7284,0,68.54553,60.003185,30.366879,38,NaN,6.66,13.653,228.6,24 / 32,1345018,2020-01-16 19:22:26:653
0.69751,-20.6147,-22.511963,-0.995605,-8.948449,-3.886441,1.333887,-9.810302,-13.91608,0.818207,0.366058,-0.276596,0,18.8568,30.9082,23.0331,133.264,65.8515,165.6313,0,53.60886,60.0031,30.366776,38,NaN,3.636,13.653,206.9,24 / 32,1350018,2020-01-16 19:22:31:653
6.905686,-19.02974,-3.138092,-0.746403,-9.7762,0.197939,5.602156,-8.443105,1.824102,-3.14653,0.543243,0.73523,0,18.2068,37.709,-11.7706,158.1486,85.4837,75.1476,0,55.56229,60.00305,30.366768,38,NaN,7.74,13.653,191.6,23 / 32,1355018,2020-01-16 19:22:36:653
-2.800415,-9.328445,-3.624115,-0.462609,-9.656909,-1.643315,5.630317,5.245368,6.882891,3.560379,-3.890915,-2.089142,0,11.8561,24.057,19.4321,125.7124,61.3561,171.5764,0,63.76898,60.002953,30.366707,38,NaN,7.272,13.653,197.1,23 / 32,1360018,2020-01-16 19:22:41:653
2.27768,-3.443497,3.594406,-1.495295,-8.054174,-5.391175,-2.83085,-0.746219,3.031971,-2.20697,3.33815,1.25029,0,21.051,32.6233,15.3198,133.9428,73.3663,154.7454,0,60.80402,60.002888,30.36664,41,NaN,4.248,15.170001,212.4,23 / 32,1365018,2020-01-16 19:22:46:653
-1.318405,-10.69194,-3.778534,0.298157,-9.500735,2.411955,-3.007335,1.219755,-2.709791,1.588211,-1.454117,-0.575928,0,18.6066,36.7569,4.5822,254.2065,86.5997,36.7437,0,63.27622,60.00281,30.366581,41,NaN,6.66,13.653,206.1,23 / 32,1370018,2020-01-16 19:22:51:653
1.336762,-25.270233,-17.752289,-1.249902,-9.08845,-3.465284,1.767463,-12.125446,-15.087492,-0.037552,0.568649,-0.169891,0,17.7567,23.5077,25.7828,157.2179,67.9359,160.166,0,65.43236,60.002743,30.36652,40,NaN,2.34,13.653,206.1,23 / 32,1375018,2020-01-16 19:22:56:653
3.350296,-13.936081,9.748703,-0.005458,-9.533566,2.298149,-0.365169,-5.300555,-1.603656,-0.070755,-0.479935,-0.153549,0,17.0059,33.5083,-8.6182,267.2323,76.4469,0.1361,0,68.15401,60.002693,30.366491,40,NaN,2.988,13.653,192.2,23 / 32,1380017,2020-01-16 19:23:01:652
-5.947601,-12.858688,-6.37265,-0.78578,-9.487245,-2.35481,3.627721,1.928426,6.58305,3.022415,-3.56813,-1.840225,0,17.7063,24.2584,24.4827,128.8693,61.356,171.7914,0,64.21201,60.00263,30.36639,37,NaN,5.364,13.653,215.9,24 / 32,1385018,2020-01-16 19:23:06:653
-1.622467,-2.755157,4.868119,-1.227808,-8.11014,-5.374803,-2.473303,2.068573,5.347555,-2.233429,3.070236,1.503464,0,20.256,29.4586,11.7325,121.5684,68.969,154.0725,0,57.42012,60.002575,30.366377,37,NaN,4.68,13.653,214.7,24 / 32,1390017,2020-01-16 19:23:11:652
-3.714996,-12.209854,-1.385529,0.391852,-9.389372,2.802951,-3.994738,-2.365936,-4.640057,0.374344,-0.370392,-0.293289,0,19.4061,34.2575,-14.0167,267.3956,73.2258,-7.9584,0,61.24452,60.002518,30.366337,34,NaN,4.68,13.653,199.5,25 / 32,1395018,2020-01-16 19:23:16:653
-2.692673,-15.000305,11.533585,-0.493784,-9.74612,-0.969381,-2.417989,-5.618353,4.010101,1.438721,-1.973083,-1.084061,0,18.0557,23.2086,26.3336,151.1222,63.3885,162.2786,0,64.03099,60.002434,30.366251,33,NaN,4.32,13.653,224.2,25 / 32,1400018,2020-01-16 19:23:21:653
4.036224,-2.133865,5.886856,-1.964757,-8.830759,-3.785209,-3.757659,-0.498249,1.685473,-1.817444,2.229035,2.288391,0,28.4561,34.5078,9.2819,99.8312,64.2221,152.5679,0,61.52207,60.00237,30.36621,34,NaN,3.708,13.653,206.3,26 / 32,1405017,2020-01-16 19:23:26:652
-5.286789,-12.303238,-2.229492,0.808487,-9.291453,3.030779,-2.654998,-0.609499,-6.632641,1.824875,-0.295822,-0.469406,0,19.6564,37.8586,-11.6165,262.547,83.1265,-12.2295,0,70.07854,60.00233,30.366144,34,NaN,2.484,15.170001,231,26 / 32,1410018,2020-01-16 19:23:31:653
0.658005,-6.168091,4.814255,-0.892429,-9.356752,-2.797346,2.513501,1.235193,6.085569,2.153153,-2.379837,-1.014816,0,22.7066,25.8591,22.8821,117.8693,62.1329,172.8477,0,71.97307,60.002262,30.366068,34,NaN,4.536,15.170001,243.8,25 / 32,1415017,2020-01-16 19:23:36:652
1.977219,-1.30307,3.370545,-0.908839,-9.082393,-3.585323,0.707246,6.018269,3.602398,3.12468,0.609299,0.969772,0,19.8074,26.86,20.0806,104.9183,56.8207,170.8464,0,63.13727,60.002205,30.366053,36,NaN,2.592,15.170001,241.3,24 / 32,1420017,2020-01-16 19:23:41:652
5.411698,-15.635971,0.42807,0.510074,-9.467455,2.505498,-7.330464,-3.573149,-3.702268,-0.634827,-0.195145,0.175797,0,17.7551,35.2081,-13.5681,268.1724,74.8866,-11.5071,0,60.22173,60.00213,30.366003,34,NaN,6.012,15.170001,208.6,22 / 32,1425018,2020-01-16 19:23:46:653
1.796448,-6.04599,1.807129,-0.439891,-9.789657,-0.373507,-4.191944,-4.983239,8.92912,3.498764,-3.38562,-1.55101,0,15.2069,22.406,20.1324,138.9626,68.3622,169.4222,0,64.60936,60.00205,30.365904,34,NaN,6.696,15.170001,230.6,21 / 32,1430017,2020-01-16 19:23:51:652
4.074539,-30.921738,-22.490417,-0.712325,-8.105407,-5.474061,2.852269,7.395387,6.912913,-0.440048,2.124634,0.568695,0,19.2566,23.558,21.0815,109.5509,55.7431,172.5859,0,57.09818,60.001995,30.365889,34,NaN,1.548,15.170001,228.6,22 / 32,1435018,2020-01-16 19:23:56:653
6.503449,-16.958755,1.942413,-0.587669,-9.787781,-0.156132,-5.246379,-3.002658,-5.734925,-1.337357,0.044174,0.705582,0,16.4032,37.7701,-9.5627,284.1426,74.6163,-14.2311,0,59.8842,60.001934,30.365862,37,NaN,4.572,13.653,209,22 / 32,1440018,2020-01-16 19:24:01:653
-0.002792,-6.61821,3.285553,-0.46046,-9.793222,-0.226201,-3.37144,0.947744,-4.240374,3.562683,-3.753143,-1.827438,0,19.8166,34.166,9.4055,89.5988,67.4043,164.4848,0,63.65729,60.00187,30.365784,32,NaN,8.352,13.653,236.3,22 / 32,1445017,2020-01-16 19:24:06:652
-2.079758,-4.575943,-4.058655,-0.848212,-8.899961,-4.030089,-0.988289,3.582015,7.671368,-0.250259,2.513275,0.670258,0,8.9752,28.772,26.3641,171.4566,57.948,163.3812,0,61.77753,60.00181,30.365736,31,NaN,3.024,15.170001,235.5,25 / 32,1450018,2020-01-16 19:24:11:653
-6.401291,-10.31485,-1.182022,1.033127,-9.304143,2.921636,-6.606826,-0.727653,-4.968432,1.689941,0.005829,-0.810471,0,-2.7283,49.8596,-4.5364,6.3852,71.5787,-19.4742,0,66.81142,60.00171,30.365719,34,NaN,6.084,15.170001,205.8,25 / 32,1455018,2020-01-16 19:24:16:653
10.942307,-3.791855,-6.537857,-1.31871,-8.662154,-4.40437,6.682645,3.676916,1.093217,0.85762,-1.113937,-0.360397,0,-12.9974,37.0117,27.8305,249.0852,64.8934,168.9452,0,62.15796,60.001602,30.365648,38,NaN,6.228,15.170001,237.3,27 / 32,1460017,2020-01-16 19:24:21:652
2.809204,-20.176575,-3.808472,-0.731983,-9.77865,0.112271,-3.172191,-3.776104,-5.641593,-3.101089,0.861053,1.112152,0,2.6932,49.5071,-4.0848,342.4423,73.3949,-6.1798,0,57.43106,60.001507,30.365562,37,NaN,3.528,15.170001,217.6,27 / 32,1465017,2020-01-16 19:24:26:652
0.181564,-6.215973,2.608002,-0.647872,-9.754233,-0.778185,1.584788,0.198162,8.868143,2.619385,-1.303741,-1.163254,0,1.8005,34.8557,32.0847,206.7805,63.9635,164.7535,0,63.59058,60.001434,30.36551,38,NaN,5.76,15.170001,213.6,27 / 31,1470018,2020-01-16 19:24:31:653
2.169953,-2.716858,2.698975,-1.770461,-8.305347,-4.9048,-2.782835,2.665892,5.296793,-2.648346,2.747467,1.807602,0,15.0024,36.9247,25.9644,135.3728,57.8771,160.1522,0,67.14887,60.001366,30.365534,42,NaN,3.132,15.170001,172.1,27 / 31,1475018,2020-01-16 19:24:36:653
-9.344971,-11.349152,0.07254,0.410475,-9.261038,3.199229,-2.468541,-3.134988,-7.783909,1.303253,-0.876389,-0.467102,0,8.6075,47.3587,-6.7688,287.7913,81.3202,10.8601,0,67.61048,60.00126,30.365522,45,NaN,5.148,15.170001,189.6,27 / 31,1480018,2020-01-16 19:24:41:653
2.488373,-7.106613,-1.736282,-0.905569,-9.685187,-1.243976,-3.680764,-3.008506,-0.275556,2.251694,-2.717529,-1.044479,0,9.2056,34.108,29.8828,175.7829,61.7311,164.8484,0,64.61579,60.001167,30.365448,44,NaN,5.256,15.170001,202.7,26 / 30,1485017,2020-01-16 19:24:46:652
3.964401,-1.133087,3.560883,-1.175327,-8.540762,-4.673796,4.941866,7.404941,8.115912,1.91507,1.221466,0.260651,0,16.2064,32.8079,25.1816,141.8936,56.9684,157.3063,0,67.99275,60.00112,30.36541,43,NaN,3.888,15.170001,203.3,25 / 31,1490018,2020-01-16 19:24:51:653
-5.23053,-13.669128,-2.20076,-0.186951,-9.704715,1.397837,-3.628234,-3.460029,-6.80031,1.133881,-0.572082,-0.284042,0,5.6061,48.0576,-6.7673,324.2613,71.2883,-8.412,0,67.95246,60.00105,30.36538,43,NaN,5.256,15.170001,197,23 / 30,1495017,2020-01-16 19:24:56:652
7.312699,-2.099151,-9.780807,-1.172972,-9.13931,-3.356717,4.23238,5.429428,6.197981,3.387085,-2.825287,-1.378784,0,2.4551,34.3079,30.2826,198.9767,62.6668,169.0311,0,61.94445,60.000984,30.365301,43,NaN,4.788,15.170001,198.4,22 / 31,1500017,2020-01-16 19:25:01:652
0.625687,-2.692901,-0.62059,-1.103272,-8.181548,-5.292962,4.990079,6.124005,9.290024,0.590775,1.264267,0.688705,0,5.1575,32.2083,30.1315,173.8523,61.7732,159.1688,0,55.66223,60.000923,30.365274,43,NaN,5.004,15.170001,204.5,20 / 30,1505018,2020-01-16 19:25:06:653
-4.22496,-14.80159,-8.972763,-0.185513,-9.75778,0.960056,-4.197211,-3.782034,-7.527964,-2.503998,0.678543,0.963379,0,4.9561,46.0083,-7.0679,324.0761,71.9208,-11.8679,0,63.73609,60.00084,30.36522,41,NaN,5.688,15.170001,196.6,19 / 31,1510018,2020-01-16 19:25:11:653
-1.894211,-10.756577,-6.522293,-0.443912,-9.764245,-0.795513,-2.147088,0.339236,-2.957178,0.688782,-1.896027,-0.035675,0,9.3002,32.0602,28.1845,167.1279,64.6193,167.8556,0,61.23007,60.000763,30.365181,38,NaN,7.092,15.170001,198.2,18 / 31,1515018,2020-01-16 19:25:16:653
-1.702667,-4.306595,-2.1828,-1.338564,-8.123399,-5.328133,0.379097,5.469463,9.525119,0.225388,1.692322,0.598877,0,14.2563,34.8084,24.3317,161.4833,72.2724,160.4072,0,51.4881,60.000736,30.36512,36,NaN,2.484,15.170001,200.1,19 / 31,1520018,2020-01-16 19:25:21:653
-3.992721,-12.976013,-0.655304,0.479255,-9.267966,3.169464,-4.418629,-2.180034,-4.465603,0.596802,-0.335068,-0.308029,0,8.8562,43.457,-5.6152,286.2562,78.8627,-1.6344,0,63.94821,60.00067,30.365047,38,NaN,5.904,15.170001,199.2,19 / 31,1525017,2020-01-16 19:25:26:652
-2.241363,-16.88095,7.936295,-0.748561,-8.994552,-3.835111,4.087809,6.110445,5.434524,-0.7836,-0.846024,-0.420578,0,5.2551,32.0084,27.2324,179.076,64.4015,169.8766,0,71.14562,60.000603,30.364971,34,NaN,3.024,13.653,227.3,21 / 31,1530018,2020-01-16 19:25:31:653
-0.973633,-1.463486,4.350983,-0.865461,-8.023434,-5.571882,1.322794,6.82145,9.968939,-2.352386,3.2453,1.357163,0,7.605,37.3596,22.7798,194.0687,67.5207,155.9373,0,63.34831,60.000565,30.364939,35,NaN,2.808,15.170001,226,22 / 31,1535018,2020-01-16 19:25:36:653
-2.99913,-14.212616,-3.778534,0.481141,-9.377402,2.828997,-2.374534,0.239103,-5.752801,1.802857,-0.105133,-0.52533,0,4.657,41.0584,-1.0666,293.3415,84.3972,11.6095,0,62.81061,60.000504,30.364887,34,NaN,4.536,16.687,199.7,23 / 31,1540017,2020-01-16 19:25:41:652
-3.634796,-15.792786,9.494919,-1.139696,-9.6409,-1.38728,8.922199,5.421973,2.773629,0.703339,-0.746429,-0.346008,0,-2.2934,29.3579,24.4324,237.1102,62.2269,161.7221,0,67.39531,60.00044,30.364834,36,NaN,3.42,18.203999,274.3,23 / 31,1545017,2020-01-16 19:25:46:652
4.051788,-0.389694,4.692154,-2.034661,-8.293588,-4.821508,1.939747,5.858024,10.649027,-2.558685,2.934235,2.000229,0,11.7065,32.5577,17.3828,175.8724,75.9551,147.1994,0,55.99839,60.000385,30.3648,40,NaN,3.456,18.203999,213.3,22 / 31,1550017,2020-01-16 19:25:51:652
-2.543045,-11.041489,-2.251037,0.322887,-9.570961,2.112541,-3.011908,-1.406378,-5.424608,1.979523,-0.721924,-0.424667,0,5.9067,41.0568,4.6326,218.6005,89.2305,93.7285,0,62.38745,60.000298,30.364819,42,NaN,2.376,16.687,221.5,23 / 31,1555018,2020-01-16 19:25:56:653
4.621613,-10.925369,-9.865799,-0.8187,-8.717951,-4.415591,-0.240631,-5.283642,-9.901339,1.100143,1.246323,-0.231323,0,-4.5944,31.4575,32.4326,227.2506,62.7589,164.9694,0,64.38423,60.0002,30.364853,44,NaN,5.292,16.687,202.4,23 / 31,1560018,2020-01-16 19:26:01:653
0.814835,-20.697311,0.423294,-0.900934,-9.704478,-1.087112,-3.293095,-2.42247,-4.85639,-2.736938,1.042145,1.287216,0,-9.2941,48.259,-3.2181,49.271,76.0786,-9.7413,0,56.72399,60.00012,30.36486,43,NaN,5.22,16.687,242,24 / 32,1565018,2020-01-16 19:26:06:653
-1.810409,-9.469696,-0.283005,-1.050535,-9.670493,-1.244318,1.157302,2.430346,-0.387329,2.256668,-0.391159,-0.702698,0,-0.7935,39.8575,26.5335,239.7243,61.7346,167.2244,0,61.07541,60.000072,30.364761,46,NaN,3.852,15.170001,249.4,25 / 32,1570018,2020-01-16 19:26:11:653
4.063767,-20.984604,-16.322952,-1.108961,-8.253955,-5.178109,0.850633,5.155594,0.892863,0.710083,1.624313,0.485779,0,3.5065,35.1074,30.1819,218.7046,61.4284,158.5204,0,51.5587,60.000004,30.36471,48,NaN,3.996,15.170001,203.9,26 / 32,1575018,2020-01-16 19:26:16:653
-3.568954,-13.391403,-3.72586,0.352289,-9.55668,2.171669,-3.087779,-2.773244,-5.848421,0.543716,-1.096542,-0.143784,0,-19.8441,46.0083,-5.4672,78.7423,75.1259,-9.8084,0,53.677,59.999954,30.364616,48,NaN,5.868,15.170001,256.2,26 / 32,1580018,2020-01-16 19:26:21:653
-4.518249,-19.217697,4.583206,-0.830566,-9.569028,-1.978447,2.534872,3.662638,6.269976,2.636246,-1.127441,-0.890533,0,-6.6437,38.3087,30.2826,244.6664,58.4223,173.7053,0,64.06458,59.999954,30.364424,47,NaN,6.156,15.170001,259.4,24 / 32,1585018,2020-01-16 19:26:26:653
2.748154,-1.158218,2.848618,-1.03308,-8.107186,-5.420026,-0.026961,5.235585,9.485187,-1.913849,2.483276,2.571396,0,2.5558,43.9575,18.8812,207.5308,82.6151,151.5164,0,56.22154,59.999878,30.364304,50,NaN,4.716,15.170001,216.3,24 / 32,1590018,2020-01-16 19:26:31:653
-4.234543,-12.551041,-3.632492,1.200571,-9.188771,3.208662,-7.387304,-4.087841,-4.744301,1.654251,-0.819397,-0.717789,0,-2.4429,47.2076,4.0833,16.4002,82.7043,-11.8611,0,64.75073,59.99981,30.364187,50,NaN,5.292,13.653,225.7,24 / 32,1595018,2020-01-16 19:26:36:653
-4.409317,-14.953613,21.275587,-0.973792,-8.659286,-4.498766,-1.192441,-1.647623,14.784604,3.798813,-4.710983,-1.574799,0,-9.2941,36.4578,26.7319,242.1786,64.9836,169.319,0,65.90319,59.999744,30.364126,53,NaN,4.428,15.170001,215.7,23 / 32,1600018,2020-01-16 19:26:41:653
3.594498,-1.327011,4.832215,-0.884138,-8.326851,-5.10414,3.236292,6.846547,11.971863,-0.809341,1.85228,0.651077,0,1.8555,37.7579,25.0824,199.6671,75.0701,163.9522,0,68.82862,59.999714,30.364048,52,NaN,4.716,15.170001,205.5,24 / 32,1605018,2020-01-16 19:26:46:653
-5.175461,-15.694626,1.148727,0.581762,-9.49207,2.394274,-2.826362,-4.099005,-5.305885,-0.973389,-0.137619,0.206863,0,-3.4439,49.408,-1.0666,11.9365,72.8485,-11.7474,0,64.1071,59.999645,30.363947,46,NaN,4.284,15.170001,224.1,24 / 32,1610018,2020-01-16 19:26:51:653
0.076218,-7.815307,-1.29216,-1.837191,-9.144378,-3.029106,1.592633,0.485332,2.384334,-0.434372,1.458145,0.953079,0,-0.8942,41.5573,21.1823,230.7631,75.2655,156.5712,0,62.13964,59.999577,30.363838,46,NaN,2.592,15.170001,229.7,23 / 32,1615018,2020-01-16 19:26:56:653
-2.607681,-9.429001,-0.393143,-0.337385,-9.768285,0.798235,-1.658058,0.544707,-0.23262,0.963791,-0.814423,-0.355957,0,-4.3442,44.8074,14.3845,265.0901,78.1872,151.0449,0,56.84639,59.99957,30.363825,45,NaN,1.188,15.170001,229.9,22 / 32,1620017,2020-01-16 19:27:01:652
-1.247772,-5.897552,2.196198,-1.215742,-9.382113,-2.582306,0.645672,-4.508849,2.062467,-2.549271,1.771683,2.093979,0,-9.9945,46.0083,3.5828,57.4414,85.6471,-5.0571,0,52.81433,59.999546,30.363712,46,NaN,6.444,15.170001,235.2,22 / 32,1625018,2020-01-16 19:27:06:653
-0.533112,-9.819244,-4.367508,0.190086,-9.679607,1.561877,-2.543548,1.656426,-3.093998,2.36763,-0.676834,-0.535278,0,-4.245,44.6564,18.5837,236.8309,82.7031,149.6192,0,67.49344,59.999496,30.363558,43,NaN,7.2,15.170001,242.8,22 / 32,1630018,2020-01-16 19:27:11:653
-0.445724,-11.326401,-6.914947,-0.80284,-8.512419,-4.802557,-1.027568,-0.172092,-6.291057,1.433579,0.464966,0.287292,0,-0.8438,31.9077,34.8328,208.0924,57.5562,171.1914,0,64.34427,59.99945,30.363382,43,NaN,4.608,15.170001,237.3,21 / 32,1635018,2020-01-16 19:27:16:653
3.944046,-22.694077,2.216538,-0.744141,-9.646337,-1.60151,-2.239153,-4.963835,1.477855,-3.193939,0.972031,1.432266,0,-5.9433,49.0585,-3.8681,39.8423,77.1867,-18.1824,0,61.05045,59.999374,30.36331,47,NaN,6.588,13.653,210.3,21 / 32,1640018,2020-01-16 19:27:21:653
-4.287216,-9.846786,-5.113312,0.062579,-9.747974,1.069319,-4.745424,1.554083,-1.992206,1.851502,-2.423691,-0.551437,0,1.2558,45.5078,9.0332,358.0689,83.7293,-3.3493,0,62.13703,59.9993,30.363184,48,NaN,8.064,15.170001,232.5,21 / 32,1645018,2020-01-16 19:27:26:653
2.203461,0.29985,8.60907,-0.833483,-8.666071,-4.513856,-0.203915,-8.188474,6.545501,-0.995941,0.134903,0.116837,0,-3.3951,39.1525,29.5883,253.4889,56.8492,167.999,0,62.58486,59.999252,30.36307,50,NaN,2.88,15.170001,244.6,22 / 32,1650018,2020-01-16 19:27:31:653
-7.273987,-10.475266,-3.218292,-0.681161,-9.580356,-1.980708,5.785432,-8.678905,1.046392,-2.219925,0.757721,1.178558,0,-0.1938,46.5073,7.3318,3.4757,80.4219,-7.3113,0,57.39385,59.999218,30.36299,49,NaN,5.904,15.170001,215.5,22 / 32,1655018,2020-01-16 19:27:36:653
-2.641205,-7.499267,0.320343,0.318249,-9.670056,1.599725,-3.499153,1.304109,-2.406734,1.907974,-0.18486,-0.744598,0,-2.3437,42.6575,17.5323,235.8057,85.2141,140.0808,0,66.61182,59.99916,30.36289,44,NaN,6.3,16.687,226.8,23 / 32,1660018,2020-01-16 19:27:41:653
-0.725845,-27.56987,-13.248795,-1.262842,-9.203049,-3.14317,-0.861,1.347082,-7.534744,1.993012,0.877396,0.81868,0,-3.0441,30.2582,33.7311,217.9555,55.9887,170.9424,0,57.27031,59.999107,30.362772,39,NaN,2.556,15.170001,225.9,24 / 32,1665018,2020-01-16 19:27:46:653
-3.048218,-15.954391,-10.748062,0.629865,-9.501182,2.345466,-4.221635,-2.004807,-5.053613,-0.877167,-0.021164,0.536911,0,-2.6932,49.3576,5.4825,18.6498,83.9893,-3.9432,0,57.6158,59.999073,30.362719,39,NaN,5.796,15.170001,223.6,25 / 32,1670018,2020-01-16 19:27:51:653
8.010605,5.024796,6.059235,-1.03158,-8.890573,-4.007986,-0.234029,-0.323178,-4.241092,-1.071228,0.587631,-0.076141,0,-2.594,34.758,30.1819,230.322,60.5401,167.6674,0,61.33534,59.998997,30.36259,40,NaN,4.356,15.170001,224.6,26 / 31,1675018,2020-01-16 19:27:56:653
3.887787,-14.623215,1.674255,-0.501804,-9.789312,0.296589,6.315124,-10.129187,1.38403,-3.0345,1.038071,1.40831,0,-4.3442,48.8571,-5.867,13.3261,72.1866,-17.6916,0,62.49216,59.99892,30.362516,42,NaN,5.364,15.170001,201.4,26 / 31,1680018,2020-01-16 19:28:01:653
-4.282425,-8.225906,0.455612,-0.077016,-9.796153,0.447036,-1.933395,0.21085,-0.848281,2.255783,-1.699661,-0.690628,0,0.206,35.257,28.8834,203.2322,76.4244,163.7944,0,68.94258,59.998848,30.362429,40,NaN,5.112,15.170001,212,26 / 31,1685018,2020-01-16 19:28:06:653
5.110031,-35.13434,-22.564636,-0.54117,-8.972163,-3.921454,0.457058,5.835219,0.153446,-1.095718,0.480927,-0.143616,0,6.9565,30.9082,32.9819,199.4219,63.1703,158.5774,0,64.1836,59.998802,30.362411,39,NaN,0,15.170001,,26 / 31,1690018,2020-01-16 19:28:11:653
-3.773666,-10.981628,-3.609741,-1.658146,-9.320956,-2.55748,5.746323,-10.495279,1.141715,-3.103744,-0.461472,0.93692,0,-5.8945,50.3586,-1.2192,23.4904,72.461,-19.0195,0,67.94281,59.99877,30.362396,40,NaN,3.78,15.170001,179.1,26 / 31,1695018,2020-01-16 19:28:16:653
-3.27327,-7.519623,0.66391,0.130195,-9.730925,1.209353,-3.039947,1.995548,-2.335379,1.901749,-0.151657,-0.537933,0,9.9564,41.2079,17.1829,179.8438,82.5124,149.647,0,65.38639,59.9987,30.362322,40,NaN,5.148,13.653,199.2,27 / 31,1700017,2020-01-16 19:28:21:652
2.807999,-3.187317,4.273163,-1.628548,-7.8664,-5.624764,4.217569,5.786641,9.409859,-2.024811,2.915772,0.986099,0,-4.4968,51.6083,15.0299,300.3255,70.9765,152.33,0,55.47304,59.99861,30.362286,41,NaN,5.472,13.653,184.4,26 / 31,1705018,2020-01-16 19:28:26:653
-3.624023,-12.036285,-0.89711,0.786937,-9.300724,3.007931,-2.912806,1.762549,-2.332782,2.005798,0.003693,-0.714249,0,2.1561,46.8582,14.7324,228.1089,75.9522,159.9542,0,66.24198,59.99851,30.362217,43,NaN,9.432,13.653,206.2,27 / 31,1710017,2020-01-16 19:28:31:652
5.564926,-16.689407,-9.392944,-0.244858,-8.382133,-5.084316,2.660829,-4.947849,-6.979514,-0.311691,-0.233139,-0.171494,0,-9.3445,33.5083,35.5331,244.1947,53.4763,170.6231,0,64.26435,59.998417,30.362099,41,NaN,5.148,15.170001,225.9,26 / 31,1715018,2020-01-16 19:28:36:653
3.350296,-19.294312,-2.448562,-0.307425,-9.660707,1.657293,3.186683,-3.911185,3.738542,-2.857666,0.730743,0.906921,0,-10.4446,49.0082,-5.368,43.2448,71.1072,-10.7357,0,64.65653,59.998398,30.362001,40,NaN,1.692,13.653,206.4,27 / 31,1720018,2020-01-16 19:28:41:653
-7.157867,-12.305634,-8.976349,-1.125811,-8.877881,-4.010757,-3.347894,-4.950258,8.779647,0.898987,-1.181412,-0.6418,0,-12.7945,39.1083,19.931,283.121,61.1371,168.6774,0,70.60126,59.99841,30.361893,41,NaN,2.916,13.653,320.3,28 / 31,1725017,2020-01-16 19:28:46:652
2.347122,-1.354553,0.638763,-1.164442,-8.091243,-5.417216,0.03114,4.484228,8.334819,-0.192383,2.325623,0.488449,0,-9.5947,39.4074,16.7816,255.4154,82.8006,149.1426,0,50.80049,59.998417,30.361814,43,NaN,2.16,15.170001,261.9,28 / 31,1730017,2020-01-16 19:28:51:652
-5.250885,-13.896576,-1.565094,0.534751,-9.395239,2.759336,-2.648791,-1.070054,-5.731559,-0.331924,-0.283386,-0.016495,0,-16.3437,48.0072,0.9827,41.714,87.0672,38.8926,0,61.28966,59.998425,30.361698,43,NaN,6.804,15.170001,284,27 / 31,1735018,2020-01-16 19:28:56:653
-2.90097,-15.094879,-0.637344,-0.572075,-8.517657,-4.826245,4.700234,5.3717,7.781369,-1.070328,-0.343216,-0.706253,0,-16.4948,41.7084,16.6321,281.7883,67.5433,167.0369,0,64.64319,59.99844,30.361483,40,NaN,6.552,15.170001,288.1,27 / 31,1740018,2020-01-16 19:29:01:653
4.031433,-0.961899,5.417588,-1.243887,-8.04887,-5.462492,-2.4755,1.832702,5.199028,-2.334625,3.084625,1.915192,0,-12.2452,40.155,20.8344,272.819,69.5278,154.8018,0,55.14875,59.998432,30.361328,39,NaN,2.916,13.653,298.9,26 / 31,1745018,2020-01-16 19:29:06:653
-4.740921,-11.650818,-0.849228,0.320749,-9.577814,2.081585,-1.698038,0.021324,-5.889218,1.733627,0.051453,-0.592987,0,-16.4429,48.1583,5.6335,330.7949,87.5057,102.0464,0,62.0846,59.99844,30.361156,38,NaN,3.924,13.653,284.1,27 / 31,1750018,2020-01-16 19:29:11:653
1.760544,0.390823,14.367111,-0.417836,-8.741291,-4.425566,-0.626764,-5.242902,9.130273,-0.756256,0.365006,-0.174866,0,-20.9427,40.1382,22.0596,269.4328,68.4589,165.5516,0,65.53572,59.998463,30.360945,36,NaN,6.588,13.653,289.3,27 / 31,1755018,2020-01-16 19:29:16:653
-3.847885,-8.076278,-0.888733,-0.604675,-9.739278,-0.975305,4.422518,-8.372093,4.222988,-3.058655,0.302155,0.960007,0,-20.3064,46.8491,-1.5167,72.7597,74.5989,-14.2648,0,57.72399,59.998455,30.360806,35,NaN,6.408,13.653,261,27 / 31,1760017,2020-01-16 19:29:21:652
-1.007156,-2.400818,-1.355606,-1.301593,-8.274518,-5.099862,3.615255,4.446471,7.327322,-0.375076,1.460983,0.406769,0,-15.1001,41.7603,27.4704,270.0655,65.1392,158.0376,0,58.38365,59.998444,30.360662,33,NaN,2.916,16.687,258.9,26 / 31,1765018,2020-01-16 19:29:26:653
-4.408127,-9.610962,-1.174835,0.058234,-9.788833,0.588019,-1.0769,1.060325,-0.806647,2.400116,-1.152298,-0.572205,0,-9.1171,36.6867,31.8527,237.5981,60.6592,172.1506,0,58.51541,59.99843,30.36055,35,NaN,5.076,19.720999,242.1,25 / 31,1770018,2020-01-16 19:29:31:653
-3.826324,-7.681228,-1.067108,-1.392051,-8.314086,-5.010844,-0.933547,2.984419,6.961254,-2.33374,3.153504,1.363022,0,2.1545,45.7596,9.9808,346.4252,83.4381,9.1307,0,62.75821,59.998386,30.360514,36,NaN,2.88,37.925,201.6,25 / 31,1775018,2020-01-16 19:29:36:653
3.683075,-7.100631,2.023804,-0.57348,-9.397945,-2.742285,-1.384104,-3.862332,5.238098,2.301224,-2.616318,-1.605148,0,-2.7954,28.7598,33.1314,205.0762,63.2247,172.3225,0,62.81015,59.998417,30.360468,36,NaN,2.376,40.959,315.8,26 / 31,1780018,2020-01-16 19:29:41:653
-0.655212,-10.964874,-1.429825,0.113721,-9.6639,-1.663277,-0.281509,0.800701,-0.057783,1.146668,0.850235,0.245743,0,-9.3414,16.1575,36.2824,191.1707,73.5039,-175.3243,0,57.13787,59.998425,30.360394,36,NaN,2.556,42.475998,247.7,23 / 30,1785018,2020-01-16 19:29:46:653
-0.733017,3.921066,4.845383,0.068975,3.346827,9.217612,0.237456,0.130429,-3.18627,0.185623,0.009369,-0.483429,10,17.8955,-27.272,-22.7356,226.9877,-20.1823,-2.3907,5,47.82335,59.998356,30.360434,39,NaN,2.196,54.612,203.8,21 / 31,1790017,2020-01-16 19:29:51:652
